time,gps_x,gps_y,imu_acceleration_x,imu_acceleration_y,absolute_x,absolute_y
0.0,0.5225570882934834,0.519610978365034,0.08087989689830409,-0.028573121139701303,0.16745648723207857,-0.06855598680095817
0.02002002002002002,0.5225570882934834,0.519610978365034,-0.10533978362239571,-0.028848321710336064,0.21517622424983185,0.1421025084090743
0.04004004004004004,0.5225570882934834,0.519610978365034,0.03513417053226034,-0.11791679361631707,-0.040450361636526475,0.05371700623870185
0.06006006006006006,0.5225570882934834,0.519610978365034,0.07027706237202669,-0.0399498616021429,-0.03248703543133922,0.09137363734141463
0.08008008008008008,0.5225570882934834,0.519610978365034,0.04653352666598564,-0.19625285870974304,0.2655888656268801,0.2179725999231354
0.10010010010010009,0.7513629315104782,0.47183975537756556,0.13197512775395934,-0.044403938577807535,0.04687802954543886,0.14927333121239167
0.12012012012012012,0.7513629315104782,0.47183975537756556,0.013962243263987706,-0.15371129866962738,0.07813804142420316,0.11284718272271654
0.14014014014014015,0.7513629315104782,0.47183975537756556,-0.12690686513043753,-0.008788724577355078,0.05899335525437123,0.2985785068275452
0.16016016016016016,0.7513629315104782,0.47183975537756556,-0.13800828600664886,0.01009825069923767,0.04419098621593581,0.49816855879261124
0.18018018018018017,0.7513629315104782,0.47183975537756556,-0.06509224884396765,-0.23061366050184123,0.2107771801464415,0.41537941012356977
0.20020020020020018,0.3363541859008573,0.21327444245531807,-0.011435043040819342,-0.11909198971854806,0.06625650953056039,0.6109179387761745
0.22022022022022023,0.3363541859008573,0.21327444245531807,0.10747997199155464,-0.2430254215386688,0.1668914847972334,0.5714083180786943
0.24024024024024024,0.3363541859008573,0.21327444245531807,0.027768562310671818,-0.019808496187043834,0.4517903906013008,0.5961838337072078
0.2602602602602603,0.3363541859008573,0.21327444245531807,0.03877820338755194,-0.10571005782975539,0.1294844949564105,0.8347862589342104
0.2802802802802803,0.3363541859008573,0.21327444245531807,-0.019747372792786592,-0.1818938768053737,0.23276609105465695,0.638213444972854
0.3003003003003003,0.0376383970092769,0.6127943699057669,-0.062279899993883496,-0.16322545046885462,0.4336816746712973,0.7720749453054753
0.3203203203203203,0.0376383970092769,0.6127943699057669,0.0871762098493431,-0.18695331622963945,0.26980957213323875,0.771841595222128
0.34034034034034033,0.0376383970092769,0.6127943699057669,0.10931900403952105,-0.21931333259655175,0.4714303539684332,0.8495943666116578
0.36036036036036034,0.0376383970092769,0.6127943699057669,0.012519182601444842,-0.22267283537963256,0.46702107786150115,0.7439999322051672
0.38038038038038036,0.0376383970092769,0.6127943699057669,0.062066908177085045,-0.2734516660908455,0.23242254367896867,0.9885198565641047
0.40040040040040037,0.45428684815452786,0.9761663500698259,-0.01280844008901607,-0.23966097886478224,0.49518693040955103,1.1043503927490723
0.42042042042042044,0.45428684815452786,0.9761663500698259,-0.06462086479292646,-0.22778753018751707,0.5177739959579988,0.9474674100105676
0.44044044044044045,0.45428684815452786,0.9761663500698259,0.09604893565546264,-0.24653197787457856,0.5173377289245705,1.1568284274143912
0.46046046046046046,0.45428684815452786,0.9761663500698259,0.1190636621496445,-0.1822769856752096,0.6148517166990093,1.1501441635302094
0.4804804804804805,0.45428684815452786,0.9761663500698259,0.008458142378382678,-0.1775616724925393,0.49105118208706056,0.9398134910108401
0.5005005005005005,0.16289136403214194,1.7653663571417333,-0.06467597205379792,-0.4227042653806611,0.5233201019748489,1.3597473695420614
0.5205205205205206,0.16289136403214194,1.7653663571417333,0.03626918140445634,-0.3642515510086294,0.6392432429120993,1.3677961569265387
0.5405405405405406,0.16289136403214194,1.7653663571417333,-0.1736335094843641,-0.26390824972891436,0.5693138125752363,1.2665412208756757
0.5605605605605606,0.16289136403214194,1.7653663571417333,-0.1334256447411351,-0.5169579086169315,0.6061688679604897,1.4094518858610539
0.5805805805805806,0.16289136403214194,1.7653663571417333,-0.15148348404874593,-0.2619222565315046,0.7259850093978122,1.3160756045977222
0.6006006006006006,-0.15042679416706628,1.4542173839975772,-0.049119363047464455,-0.3915441198682054,0.5424194368733697,1.559016973072354
0.6206206206206206,-0.15042679416706628,1.4542173839975772,-0.014212967364634677,-0.4608145932387171,0.5958138773568067,1.5631410700087973
0.6406406406406406,-0.15042679416706628,1.4542173839975772,0.03959904244999082,-0.560516876354715,0.5422395103757842,1.4514223294633304
0.6606606606606606,-0.15042679416706628,1.4542173839975772,0.10349811822776367,-0.40108444866762333,0.6363055920845345,1.720621858844404
0.6806806806806807,-0.15042679416706628,1.4542173839975772,0.15833972975210633,-0.4027749679388211,0.6330980239647703,1.7540339904164397
0.7007007007007007,0.17944086121868819,1.5394615507823965,-0.1329423059724164,-0.5939627279543065,0.7407767725045261,1.6037992864963533
0.7207207207207207,0.17944086121868819,1.5394615507823965,-0.06141703110386662,-0.4513849769273241,0.6815682604778333,1.9116481814446442
0.7407407407407407,0.17944086121868819,1.5394615507823965,-0.14266589325485965,-0.6056146889522624,0.8067463677388893,1.7845815531580356
0.7607607607607607,0.17944086121868819,1.5394615507823965,-0.051429098414621725,-0.4484118757790917,0.8867644220788223,1.8513817909513535
0.7807807807807807,0.17944086121868819,1.5394615507823965,0.05385264500294932,-0.5872971081542503,0.8074626989670572,2.0127973756560547
0.8008008008008007,0.5919013965754648,2.7905884796150384,0.02038077335946456,-0.5046121028806122,0.8323195353968439,1.904565565523083
0.8208208208208209,0.5919013965754648,2.7905884796150384,-0.199122171574947,-0.4683038200379004,0.8244749824455331,2.0224197598946683
0.8408408408408409,0.5919013965754648,2.7905884796150384,0.05904122016267143,-0.7058601938372656,0.8136063812449318,1.6772881096810077
0.8608608608608609,0.5919013965754648,2.7905884796150384,-0.1271017961185374,-0.4499031382536893,1.0150111132392405,2.1127964678608295
0.8808808808808809,0.5919013965754648,2.7905884796150384,-0.2709323168097697,-0.6546862241142177,0.8179726135371471,2.0560590029583365
0.9009009009009009,1.3209335961530557,1.3747728609382808,0.10255695530968241,-0.6049875834008691,0.852038695347111,2.1721020175545394
0.9209209209209209,1.3209335961530557,1.3747728609382808,0.0745084342644018,-0.4611431297154351,0.8953615391434592,2.1954710805532733
0.9409409409409409,1.3209335961530557,1.3747728609382808,-0.016717929149278173,-0.4543422158292867,1.1048723877664792,2.263224588497924
0.960960960960961,1.3209335961530557,1.3747728609382808,0.015107676207332965,-0.6407776645973013,0.9291310665508185,2.4826182432580546
0.980980980980981,1.3209335961530557,1.3747728609382808,-0.012052601330903003,-0.6877514793596462,0.9266705601876415,2.3676462948529418
1.001001001001001,1.298138656380799,1.2950445216581419,0.14458465739413534,-0.694212804212597,0.8932497819870922,2.4742411831167903
1.021021021021021,1.298138656380799,1.2950445216581419,-0.052597996124057064,-0.620984881724362,1.2818183337535314,2.352764447946387
1.0410410410410411,1.298138656380799,1.2950445216581419,0.13917809702009604,-0.5620739789714037,1.1114177670833538,2.5805832230591106
1.0610610610610611,1.298138656380799,1.2950445216581419,-0.08984516434260434,-0.48111429870421923,1.1165741128180928,2.5577105237123954
1.0810810810810811,1.298138656380799,1.2950445216581419,-0.11741867980747456,-0.7198097455258694,1.133082992433669,2.6131904024491863
1.1011011011011012,1.0045509691835333,2.6282842434891744,-0.03943516593689132,-0.6640340535213869,1.0416771475798263,2.498044914003285
1.1211211211211212,1.0045509691835333,2.6282842434891744,0.16290628529372397,-0.6062134459092101,1.0085346348637532,2.852385304170836
1.1411411411411412,1.0045509691835333,2.6282842434891744,0.15466308962005892,-0.611872608467485,1.0347596070309313,2.742381058586475
1.1611611611611612,1.0045509691835333,2.6282842434891744,0.05445443485570736,-0.8106125955608832,1.2206690533761413,2.5976423851900394
1.1811811811811812,1.0045509691835333,2.6282842434891744,-0.21445887029774707,-0.6901536245148131,1.261117748576489,2.8260113749390703
1.2012012012012012,1.829425624187499,2.791701568465002,-0.26454803606741545,-0.6707494839531906,1.2352757287901062,2.7077673810477987
1.2212212212212212,1.829425624187499,2.791701568465002,-0.11358444179414638,-0.9500239299228905,1.2196786117697371,2.7544384627311422
1.2412412412412412,1.829425624187499,2.791701568465002,-0.018807880350204406,-0.6061568764043181,1.135167134678971,2.9649009557029533
1.2612612612612613,1.829425624187499,2.791701568465002,-0.07628801681671946,-0.878553986179807,1.1336605635338393,2.9575155032484863
1.2812812812812813,1.829425624187499,2.791701568465002,0.09514192482442942,-0.8781657934939633,1.333369631882618,3.2233722856321934
1.3013013013013013,1.7872026733971573,2.7043140283196787,0.029571852237437742,-0.62945214911285,1.2185417056313679,2.8776737607728355
1.3213213213213213,1.7872026733971573,2.7043140283196787,0.032198915868336814,-0.8407781556933004,1.3506775156689992,3.119762495413749
1.3413413413413413,1.7872026733971573,2.7043140283196787,-0.03455023150995751,-0.7272654753982704,1.303270254868381,3.1021223188139113
1.3613613613613613,1.7872026733971573,2.7043140283196787,-0.0763408720441383,-0.8517826850845928,1.4077286652547236,3.086673679469146
1.3813813813813813,1.7872026733971573,2.7043140283196787,-0.08553014805965593,-0.7925033763359683,1.378798847710741,3.1348122642406397
1.4014014014014013,1.0403464412435144,3.17887635703881,-0.1614703518753752,-0.9342971390611816,1.3798225393812602,3.293419740682827
1.4214214214214214,1.0403464412435144,3.17887635703881,0.02960883283519988,-0.7352813667311888,1.4055090168124493,3.1170225318281934
1.4414414414414414,1.0403464412435144,3.17887635703881,0.07923330805256136,-0.9571089089173753,1.4780989372609958,3.2558226811506312
1.4614614614614614,1.0403464412435144,3.17887635703881,-0.06229380944136107,-0.9177345114884838,1.3766658917764523,3.3302110772285185
1.4814814814814814,1.0403464412435144,3.17887635703881,0.05279535356834239,-0.8353155181390282,1.48788096935522,3.287087684344966
1.5015015015015014,1.7147313675068006,3.854076598126824,-0.03891992648872855,-0.8626174352773683,1.3341750237281333,3.480077289118404
1.5215215215215214,1.7147313675068006,3.854076598126824,-0.05379905410484003,-0.7159002606260306,1.50417684088535,3.334810170189086
1.5415415415415414,1.7147313675068006,3.854076598126824,-0.03925465876562681,-0.8293283672845099,1.4623959177323613,3.4768826422972463
1.5615615615615615,1.7147313675068006,3.854076598126824,-0.0666837988522784,-1.0549973724566049,1.6186068297373717,3.541418997960004
1.5815815815815815,1.7147313675068006,3.854076598126824,-0.08133009181663553,-0.7770964454283835,1.534454008325609,3.6199976018646947
1.6016016016016015,2.124265097034831,3.9756088745914684,0.20761959954568218,-0.8713856472525219,1.6275563548897878,3.3919283082256104
1.6216216216216217,2.124265097034831,3.9756088745914684,-0.001667720863453913,-0.862630889639959,1.5323385898420514,3.826975625400477
1.6416416416416417,2.124265097034831,3.9756088745914684,0.02859566586242508,-0.8502120461865507,1.5174724066652578,3.603142706136084
1.6616616616616617,2.124265097034831,3.9756088745914684,0.07015872756589563,-0.7893352123749449,1.6700413438567474,3.6456835881449376
1.6816816816816818,2.124265097034831,3.9756088745914684,0.028387280085067985,-1.0349082475312341,1.5035337489239087,3.8492843294423724
1.7017017017017018,1.5919837517022706,3.5006146321228138,-0.1589439429346573,-1.0164866585525854,1.5813029138694157,3.7780294468079627
1.7217217217217218,1.5919837517022706,3.5006146321228138,-0.11639984798558226,-0.8211334485498664,1.5847501240097206,3.7535317808041553
1.7417417417417418,1.5919837517022706,3.5006146321228138,-0.16955072523741474,-1.010960137938557,1.890697188015806,3.8933834544838586
1.7617617617617618,1.5919837517022706,3.5006146321228138,0.1025610695470603,-0.7874558051684017,1.6951825150067477,3.6861604302707844
1.7817817817817818,1.5919837517022706,3.5006146321228138,-0.155128598573399,-1.0107906600919476,1.6634532569075136,4.04136753934884
1.8018018018018018,1.9020057625621232,4.628703772372467,-0.08431971703073698,-0.8741082034270632,1.6528458949967786,3.8603568030855917
1.8218218218218218,1.9020057625621232,4.628703772372467,-0.1254650919029453,-0.967248153353817,1.8927990496128178,3.956570216719932
1.8418418418418419,1.9020057625621232,4.628703772372467,0.16551964815591788,-0.934555126573109,1.8174044252747767,4.161614526577554
1.8618618618618619,1.9020057625621232,4.628703772372467,0.16313661151080128,-1.1104747093689635,1.6505028440910003,3.9837702649592797
1.8818818818818819,1.9020057625621232,4.628703772372467,0.05045058463273312,-0.9674409650697425,1.935745276155364,3.978152188418422
1.901901901901902,2.463234358865259,3.986489247922978,-0.0022916869734894508,-1.0795545860801248,1.717040402277973,4.180175800354069
1.921921921921922,2.463234358865259,3.986489247922978,0.022486897584241154,-0.9035508995160244,1.958441417865327,4.223716461033871
1.941941941941942,2.463234358865259,3.986489247922978,-0.24819910118727373,-0.781401720080126,1.8983577633022355,4.104036379545383
1.961961961961962,2.463234358865259,3.986489247922978,-0.10630402077380824,-1.0965013885592119,1.944730765579756,4.039888791997435
1.981981981981982,2.463234358865259,3.986489247922978,0.003410123884606907,-0.9219479896501924,2.064158865709693,4.336238937413034
2.002002002002002,1.8606101599228886,3.867873297645163,0.1903704273780392,-1.233584572297143,1.9989945030435177,4.331627336621546
2.022022022022022,1.8606101599228886,3.867873297645163,-0.0310199032285311,-0.8883799121890512,1.9266153216849986,4.146037932243304
2.042042042042042,1.8606101599228886,3.867873297645163,0.07499560090417033,-0.873355371199585,1.9961482594582924,3.9922160316806945
2.062062062062062,1.8606101599228886,3.867873297645163,0.1545025382786399,-1.093072742668497,2.1716933902718463,4.484977882052505
2.0820820820820822,1.8606101599228886,3.867873297645163,-0.006234961584052424,-1.0420794440434342,1.9366023668960348,4.404174898168623
2.1021021021021022,2.748664221205469,4.65762730788333,0.04931678453941907,-1.1248410248606011,2.3353538811351995,4.412307033485641
2.1221221221221223,2.748664221205469,4.65762730788333,-0.0453340811128345,-1.0921983989077204,2.0318680083588876,4.38290427832159
2.1421421421421423,2.748664221205469,4.65762730788333,0.19921848420851418,-0.9722458228062895,2.0559999788616774,4.411324849998866
2.1621621621621623,2.748664221205469,4.65762730788333,0.011104382582418738,-1.0802415910072065,2.371619895081587,4.334891206667198
2.1821821821821823,2.748664221205469,4.65762730788333,-0.1437652009578577,-1.0992473854554983,2.280602772193984,4.428431562264066
2.2022022022022023,2.6986978373044606,4.270324932107096,0.13382928840240216,-1.0716318580315654,2.019424592164421,4.443177676246245
2.2222222222222223,2.6986978373044606,4.270324932107096,0.14405693735865555,-1.0505424246759036,2.144672552120321,4.626841799798676
2.2422422422422423,2.6986978373044606,4.270324932107096,-0.05377586488200149,-1.2727690730191168,2.0745745884545967,4.309471444798395
2.2622622622622623,2.6986978373044606,4.270324932107096,0.04115135048766043,-0.969471872041975,2.1812002531066836,4.447727705229703
2.2822822822822824,2.6986978373044606,4.270324932107096,-0.09830557787613223,-1.1108849935236464,2.3315174113154162,4.618308419443925
2.3023023023023024,2.099867325638426,4.737805545689759,-0.04760156376323014,-1.243190746396291,2.535410676806861,4.720774677295276
2.3223223223223224,2.099867325638426,4.737805545689759,0.024470686517240707,-1.1977847410280935,2.2449094663603377,4.524692608517943
2.3423423423423424,2.099867325638426,4.737805545689759,-0.11313806360809397,-1.0217999753398819,2.4846913467784946,4.498456016710558
2.3623623623623624,2.099867325638426,4.737805545689759,-0.1813564652966144,-1.0196523109452105,2.37229182634214,4.566728886400738
2.3823823823823824,2.099867325638426,4.737805545689759,-0.12324104048038276,-1.2178530926558537,2.4056454572697157,4.741078097295962
2.4024024024024024,2.533434446885456,5.425508886961813,-0.035661611805516434,-1.1788425190224905,2.390238033735745,4.759607773570963
2.4224224224224224,2.533434446885456,5.425508886961813,0.02557335499728071,-1.0717253673418745,2.4930613870895586,4.642615279076537
2.4424424424424425,2.533434446885456,5.425508886961813,0.16840694259790134,-1.303836795693749,2.48364401664264,4.496893751004876
2.4624624624624625,2.533434446885456,5.425508886961813,-0.0663187733917086,-1.2443802849777648,2.4817255396758204,4.759852855659657
2.4824824824824825,2.533434446885456,5.425508886961813,0.06477235216259594,-1.2883203892990793,2.403072041538092,4.797432427587637
2.5025025025025025,3.1914977856576345,4.140265130794065,-0.18323221990074187,-1.22889694092131,2.2631619976314723,4.855871887582115
2.5225225225225225,3.1914977856576345,4.140265130794065,-0.012150340142441016,-1.1819323490179292,2.6776951339846695,4.851369469703204
2.5425425425425425,3.1914977856576345,4.140265130794065,-0.09371131760195842,-1.3667237050004908,2.5099995336916154,4.747888374257221
2.5625625625625625,3.1914977856576345,4.140265130794065,-0.026564062487189528,-1.1987864013713962,2.6494463573667613,4.796340944602296
2.5825825825825826,3.1914977856576345,4.140265130794065,0.18148634172650302,-1.2291488722091635,2.5866818023670146,4.860437550511512
2.6026026026026026,1.7249655046300258,5.080555413825377,0.04485869929696335,-1.1976330964409012,2.5146088992130284,4.752094602550374
2.6226226226226226,1.7249655046300258,5.080555413825377,0.09101066660936558,-1.1776765546290202,2.5065087011927836,4.821634121241036
2.6426426426426426,1.7249655046300258,5.080555413825377,0.07365905390540217,-1.092208510698073,2.667052649942117,4.837400085985816
2.6626626626626626,1.7249655046300258,5.080555413825377,-0.03720390757158965,-1.2441343105562654,2.6039386293991957,4.894699758627775
2.6826826826826826,1.7249655046300258,5.080555413825377,-0.08774716364236504,-1.0010748882433098,2.5436638259041215,4.810077668399701
2.7027027027027026,3.4192731096535285,5.05105703152174,-0.13182804807740273,-1.1095767287281357,2.7105502960200165,4.665846446419358
2.7227227227227226,3.4192731096535285,5.05105703152174,0.04888867408882577,-1.399224796604516,2.73974821081425,4.986239373615988
2.7427427427427427,3.4192731096535285,5.05105703152174,0.13397022605568062,-1.1553650045640833,2.792267590665981,4.723607341214258
2.7627627627627627,3.4192731096535285,5.05105703152174,0.1334108827291972,-1.3081882319354823,2.6392983746772383,4.870944055180574
2.7827827827827827,3.4192731096535285,5.05105703152174,0.029631138946493316,-1.373183582102163,2.829337119051324,4.925993563115482
2.8028028028028027,2.084263168146099,5.854498125302769,-0.19979742841880033,-1.2244750740308674,2.7831661294807817,4.87888493445568
2.8228228228228227,2.084263168146099,5.854498125302769,0.12958862660002715,-1.324496152732105,2.8058368198378973,4.874922475881231
2.8428428428428427,2.084263168146099,5.854498125302769,-0.04902795865605911,-1.3540053876939289,2.8881597620597366,5.017782887535084
2.8628628628628627,2.084263168146099,5.854498125302769,-0.17950517014960737,-1.2595763666131101,2.7083550503564453,5.005222279587343
2.8828828828828827,2.084263168146099,5.854498125302769,-0.04622271747674214,-1.1858383910558374,2.8531791564104214,5.071254537527805
2.9029029029029028,2.5713648663868054,5.350441398790589,0.13488028517100623,-1.1611155421456452,2.9600052493959392,5.094925856174314
2.9229229229229228,2.5713648663868054,5.350441398790589,0.10802546142238303,-1.274365200128574,2.7435619437366077,4.779424697102201
2.942942942942943,2.5713648663868054,5.350441398790589,-0.24501308727238982,-0.9877621430859695,3.0226728217761734,4.7227069546541225
2.962962962962963,2.5713648663868054,5.350441398790589,-0.012752250206270216,-1.3859944244510884,3.0933378344834623,4.868661622588853
2.982982982982983,2.5713648663868054,5.350441398790589,-0.17066291662890123,-1.3014705901304777,3.070693876506748,5.073941189745106
3.003003003003003,3.1251127021127685,4.482810104566629,0.08233320954289042,-1.2452129311966837,2.822439581458227,4.955135214411286
3.023023023023023,3.1251127021127685,4.482810104566629,0.14215175639733185,-1.3664910277122166,2.8632557065853446,4.9097090907142125
3.043043043043043,3.1251127021127685,4.482810104566629,0.07648091098150994,-1.1451466141897622,3.1003986395193177,4.970147253910379
3.063063063063063,3.1251127021127685,4.482810104566629,-0.04097244738703266,-1.3127145445748483,3.122172158464532,4.992395950288933
3.083083083083083,3.1251127021127685,4.482810104566629,-0.024127132989726338,-1.151599577118932,3.0167742790171066,5.201304245014092
3.103103103103103,2.7897893934118736,4.966114720543452,0.12339927893575496,-1.250966203486001,2.935603739109109,4.970877319052868
3.123123123123123,2.7897893934118736,4.966114720543452,0.08407896507667662,-1.4819802548976633,3.1700744326334056,4.871120502785339
3.143143143143143,2.7897893934118736,4.966114720543452,-0.19721013104713384,-1.161739449207801,3.160905540485329,4.951821737786706
3.163163163163163,2.7897893934118736,4.966114720543452,0.11010646031837441,-1.2554251212506227,2.9737990087988573,5.044048094345778
3.183183183183183,2.7897893934118736,4.966114720543452,0.019838186612671296,-1.3672433670743673,3.1504527337873856,5.005782309037318
3.203203203203203,2.7868761390865178,5.7711703974401765,0.05793021200983306,-1.2358856100102684,2.9850551130040714,4.921369568860525
3.2232232232232234,2.7868761390865178,5.7711703974401765,0.15228667639646803,-1.2456587579241252,3.2213337803183895,5.059531027573617
3.2432432432432434,2.7868761390865178,5.7711703974401765,0.11989109467647575,-1.1097674121224939,3.395029646978131,4.944963564565362
3.2632632632632634,2.7868761390865178,5.7711703974401765,0.051160306117780656,-1.3445971999785848,3.1088969668526594,4.933224863922142
3.2832832832832834,2.7868761390865178,5.7711703974401765,0.14375083904934416,-1.3785744217373146,3.3477466867103542,4.967604088699249
3.3033033033033035,3.3031598768789308,4.811722597348733,-0.005625099852357416,-1.3084765834112024,3.2311535488961756,4.885252264802235
3.3233233233233235,3.3031598768789308,4.811722597348733,-0.1450271367689072,-1.2231232056796917,3.259691243772767,4.771640059977409
3.3433433433433435,3.3031598768789308,4.811722597348733,-0.13527417681532958,-1.3221525454127219,3.3037845833304225,5.056012106670518
3.3633633633633635,3.3031598768789308,4.811722597348733,-0.07523877597248213,-1.1330569223247722,3.400988684085218,4.960748331850301
3.3833833833833835,3.3031598768789308,4.811722597348733,0.015700664857067954,-1.2264800987320434,3.5415728855499347,5.07012606558494
3.4034034034034035,4.632530621776979,4.244764074255382,0.062694124161669,-0.9869554484089311,3.419826179518635,5.054453616899726
3.4234234234234235,4.632530621776979,4.244764074255382,0.23277881703645434,-1.2193004491791724,3.429680076571044,5.01182319624675
3.4434434434434436,4.632530621776979,4.244764074255382,-0.08107228841211703,-1.1462074620848561,3.3285130666216958,4.91612400929394
3.4634634634634636,4.632530621776979,4.244764074255382,-0.11236020517172268,-1.3250274900464452,3.4578674728117536,4.959746336279829
3.4834834834834836,4.632530621776979,4.244764074255382,-0.03202322076403733,-1.0753793769467148,3.6000889732673103,4.926979808853626
3.5035035035035036,4.2176757188463245,4.499071663730082,-0.05795300201292554,-1.3798847776376157,3.5861776009478996,4.957161156299877
3.5235235235235236,4.2176757188463245,4.499071663730082,-0.17563895959633796,-1.275885392454825,3.62885144131404,4.885454473060017
3.5435435435435436,4.2176757188463245,4.499071663730082,0.09104127773714395,-1.1006334359685197,3.6782705438261147,4.960249335774417
3.5635635635635636,4.2176757188463245,4.499071663730082,-0.1491779578126402,-1.2166103122257912,3.590762762642752,4.875989322847067
3.5835835835835836,4.2176757188463245,4.499071663730082,0.1457655771365539,-1.3888128511004572,3.585211194141936,4.813620859034833
3.6036036036036037,3.459975701679561,5.182481522339895,-0.023331376858908664,-1.2407020183198396,3.646971631839374,4.8398072948083195
3.6236236236236237,3.459975701679561,5.182481522339895,0.07777428780701062,-1.3201861544247395,3.6175154360300916,4.822178790583899
3.6436436436436437,3.459975701679561,5.182481522339895,-0.047974141471668265,-1.2625409200699664,3.6020832428684773,4.7495646634009185
3.6636636636636637,3.459975701679561,5.182481522339895,0.13948673489801985,-1.1724927781725822,3.658343248822684,4.7857314579027035
3.6836836836836837,3.459975701679561,5.182481522339895,0.010011393462623452,-1.1830307769990178,3.780853517255541,4.7674563179197085
3.7037037037037037,3.8420016539691284,5.083185702345389,0.218714892601816,-1.0834809479454865,3.6714055633970175,4.717241362152213
3.7237237237237237,3.8420016539691284,5.083185702345389,-0.10967078624862535,-1.23280112646558,3.6791587840656965,4.747806481904926
3.7437437437437437,3.8420016539691284,5.083185702345389,0.1692989245509022,-1.1623870714617106,3.644963162939275,4.64957480600613
3.7637637637637638,3.8420016539691284,5.083185702345389,0.008682411639390734,-1.2124782177208109,3.6463053735897533,4.705102795768091
3.7837837837837838,3.8420016539691284,5.083185702345389,-0.11500641841281006,-1.2776465151738452,3.5960778442889914,4.708174378672847
3.803803803803804,3.794856570881197,4.634312226453871,-0.09620278157031481,-1.2828015476441144,3.643346155237007,4.816702313398017
3.823823823823824,3.794856570881197,4.634312226453871,-0.08124820258778971,-1.122293041822922,3.9174073988353,5.01572079683154
3.843843843843844,3.794856570881197,4.634312226453871,-0.1592925778493484,-1.380409155357065,3.764269727793159,4.734965162239966
3.863863863863864,3.794856570881197,4.634312226453871,0.06395634884029115,-1.2352219499635007,3.9580682109368697,4.6809016226781255
3.883883883883884,3.794856570881197,4.634312226453871,0.1567853549476388,-1.4346881617781317,3.9146356145350407,4.701192210202702
3.903903903903904,3.821335735845326,4.117767667005028,0.044764719147096496,-0.889814471864603,4.006914586262925,4.713208285085452
3.923923923923924,3.821335735845326,4.117767667005028,0.03047995178693451,-1.0730672234281768,3.8209884993264738,4.685431792727975
3.943943943943944,3.821335735845326,4.117767667005028,-0.1291338176146071,-1.1421928840345335,3.7643150649298547,4.433646381402037
3.963963963963964,3.821335735845326,4.117767667005028,0.014811853274491953,-1.191113818259933,3.9165058657523697,4.5898146408433655
3.983983983983984,3.821335735845326,4.117767667005028,0.12761741515278216,-1.0301900851126358,3.998418964406031,4.501717184021669
4.004004004004004,3.839015923125595,4.110891843098659,-0.10708601568491342,-1.300288994829596,4.007797373539903,4.380680681715617
4.024024024024024,3.839015923125595,4.110891843098659,-0.16300690445633018,-1.2196927760926657,3.9870607223894536,4.631433983863513
4.044044044044044,3.839015923125595,4.110891843098659,0.08190925493056794,-1.0435003327243737,4.039073430392889,4.4508260319531034
4.064064064064064,3.839015923125595,4.110891843098659,-0.0021638742228639878,-1.0662431425208334,4.120734327903988,4.472825666499173
4.084084084084084,3.839015923125595,4.110891843098659,0.12713259193355497,-1.1285401795989753,4.222127942391071,4.4843916634826195
4.104104104104104,4.696888295784986,4.017562925175294,0.049116144306381865,-1.199190981141357,4.169307653345185,4.350124729229967
4.124124124124124,4.696888295784986,4.017562925175294,0.027474536642164805,-1.0862107413824258,4.164168928815551,4.433006463777006
4.1441441441441444,4.696888295784986,4.017562925175294,-0.01760344802230593,-0.9941503379939243,4.123529611370986,4.5729340561294824
4.1641641641641645,4.696888295784986,4.017562925175294,-0.24988741919478225,-1.0911380771180026,4.146363415793854,4.339494250473215
4.1841841841841845,4.696888295784986,4.017562925175294,0.23288573234770468,-1.156127114256324,4.13812026813033,4.183700444020358
4.2042042042042045,4.108325963190588,3.895542628080353,-0.14393269462971617,-0.9391114212338458,4.13790716188563,4.414888565830477
4.2242242242242245,4.108325963190588,3.895542628080353,-0.044651640520293676,-1.1416800714688795,4.410325887176506,4.337228735720786
4.2442442442442445,4.108325963190588,3.895542628080353,-0.06048938872000244,-1.061264381797643,4.29412461034069,4.408462675328073
4.2642642642642645,4.108325963190588,3.895542628080353,0.04210122240253606,-1.210698979178853,4.184041094940623,4.271402818573389
4.2842842842842845,4.108325963190588,3.895542628080353,0.04389175963568436,-0.9410249923422682,4.188380953188992,4.20386103909401
4.3043043043043046,4.54984456713367,4.0341358834761,-0.015608902865644883,-0.9972050020480883,4.268516170280643,4.238566451845014
4.324324324324325,4.54984456713367,4.0341358834761,-0.04918302990692425,-1.159581386630075,4.32247964053156,4.035042838024086
4.344344344344345,4.54984456713367,4.0341358834761,0.08732999997553542,-0.9376435143065996,4.368236948151583,3.99284342815505
4.364364364364365,4.54984456713367,4.0341358834761,0.09149655903718457,-1.113046907103611,4.4041256671742035,4.345646513756642
4.384384384384385,4.54984456713367,4.0341358834761,-0.008604112360127572,-1.0585662432751917,4.311964453473516,4.05042421014393
4.404404404404405,4.509960278544255,4.561453725461469,-0.13596242993184024,-1.0669004230226662,4.3535679944235435,3.977805144089868
4.424424424424425,4.509960278544255,4.561453725461469,0.0744852364991097,-1.0756739365904986,4.322794201170693,4.079411276415074
4.444444444444445,4.509960278544255,4.561453725461469,0.016388967240039264,-0.9623346071730462,4.530674084360804,4.109037740081711
4.464464464464465,4.509960278544255,4.561453725461469,0.11513237748779302,-1.077401702994048,4.546128912774042,3.996477737627703
4.484484484484485,4.509960278544255,4.561453725461469,-0.14250356492843497,-1.1938762522711581,4.382408704218243,3.941694668586939
4.504504504504505,5.363888844792104,4.05031454471173,0.06362133520630472,-1.1000677041389149,4.416547906028574,4.147461385113011
4.524524524524525,5.363888844792104,4.05031454471173,0.11623042801485571,-0.9996986793695968,4.559484253038801,3.843536000096893
4.544544544544545,5.363888844792104,4.05031454471173,0.02224989340792689,-0.9211777882675151,4.467934219498301,3.7911097459127134
4.564564564564565,5.363888844792104,4.05031454471173,0.0280568025163569,-0.9630350026865818,4.76468067501314,3.7494562141197605
4.584584584584585,5.363888844792104,4.05031454471173,0.0380958507166229,-0.94916919359025,4.616687067987872,3.7635369213021552
4.604604604604605,4.143481549007117,4.3772197904600825,0.014854450345467209,-0.9910854021380937,4.6930401413373275,3.9060813255706077
4.624624624624625,4.143481549007117,4.3772197904600825,-0.014220176406026103,-0.9482446216110034,4.494274655212844,3.6394377517498913
4.644644644644645,4.143481549007117,4.3772197904600825,0.044722979201975016,-0.8024263919623482,4.705215880838017,3.6572488646501453
4.664664664664665,4.143481549007117,4.3772197904600825,-0.0874229932610539,-0.8902939422056753,4.486735339271043,3.6932374052489783
4.684684684684685,4.143481549007117,4.3772197904600825,-0.1590602684519097,-0.849152866013037,4.754779188858588,3.4875301120855227
4.704704704704705,4.732566854005449,3.494090452925151,0.00515977158121786,-0.9778510294190432,4.793510974595985,3.705820948426121
4.724724724724725,4.732566854005449,3.494090452925151,-0.21721201438437165,-0.8771866603637715,4.706908755678525,3.5346553750284437
4.744744744744745,4.732566854005449,3.494090452925151,-0.005367621223095596,-0.726383822397927,4.967477138455979,3.2633894916004786
4.764764764764765,4.732566854005449,3.494090452925151,-0.052495756640047936,-0.9414596541047162,4.7724835462251765,3.4827368923043815
4.784784784784785,4.732566854005449,3.494090452925151,-0.051840533876357967,-0.9351961048380257,4.722309199928794,3.3480066508475597
4.804804804804805,4.456051108920343,3.9529996007860095,0.03513242985352935,-0.8152166190571424,4.672105767459606,3.4753059076957507
4.824824824824825,4.456051108920343,3.9529996007860095,-0.0818213518117062,-0.6533013314244043,4.745888125365087,3.290698690425274
4.844844844844845,4.456051108920343,3.9529996007860095,-0.1427880276367439,-0.7536448045497318,4.995586684437137,3.361873205579487
4.864864864864865,4.456051108920343,3.9529996007860095,-0.01825251200337013,-0.8813751340708058,4.842782015283482,3.1777545308892527
4.884884884884885,4.456051108920343,3.9529996007860095,-0.03979817805834235,-0.7080324832961067,4.755598371125462,3.1402291109723643
4.904904904904905,3.892183720972601,2.596291602067057,-0.06285477394408412,-0.8029200559488276,4.752496838194397,3.368752771497147
4.924924924924925,3.892183720972601,2.596291602067057,-0.061214185945503534,-0.750219491545661,4.970876315179624,3.123483371644132
4.944944944944945,3.892183720972601,2.596291602067057,0.13345472537363698,-0.7502419450721534,5.095617762945114,3.1057479471002676
4.964964964964965,3.892183720972601,2.596291602067057,0.11004262384507822,-0.8547060617813765,5.106945717129174,3.0540382536300115
4.984984984984985,3.892183720972601,2.596291602067057,0.06482633429028176,-0.6175679679840169,4.84308145029262,2.9762790061562
5.005005005005005,6.131315779044444,3.350202599972012,-0.0644902586038759,-0.6367766732718382,5.090656890546411,2.9984307866084974
5.025025025025025,6.131315779044444,3.350202599972012,0.013704972261436722,-0.8618782208650322,5.1053849546286445,3.1318645142868538
5.045045045045045,6.131315779044444,3.350202599972012,0.02680530265706458,-0.7564795823788937,5.113703264544304,2.8427853708978197
5.065065065065065,6.131315779044444,3.350202599972012,-0.004824397582143348,-0.6196854474227402,5.233000954303629,2.8298319661227427
5.085085085085085,6.131315779044444,3.350202599972012,-0.03607156386432812,-0.7861150443334329,5.100094297304242,2.8241658681076185
5.105105105105105,5.5198448230313995,2.194723174252852,-0.026386319483703832,-0.6703136889718687,5.183791656378153,2.832251576447338
5.125125125125125,5.5198448230313995,2.194723174252852,-0.02516276510425799,-0.6716111253150966,4.842467290192775,2.7370275967836326
5.145145145145145,5.5198448230313995,2.194723174252852,-0.1103284505553839,-0.7577896392199184,5.1150762958011935,2.8066841167965246
5.165165165165165,5.5198448230313995,2.194723174252852,-0.06644128437342132,-0.6761403567731205,5.1923242278500865,2.5325369805266975
5.185185185185185,5.5198448230313995,2.194723174252852,-0.014591681490086179,-0.6699057299954089,5.257662330355503,2.724308485171744
5.205205205205205,4.252958871967553,2.347319416255543,-0.1791639088268671,-0.7634323627468962,5.321174119998918,2.5562185666510797
5.225225225225225,4.252958871967553,2.347319416255543,0.10070594502506972,-0.6073910231778192,5.144051311208987,2.6416625873820085
5.245245245245245,4.252958871967553,2.347319416255543,-0.019387097500917754,-0.39216514574768924,5.197153985543998,2.565716476785604
5.265265265265265,4.252958871967553,2.347319416255543,0.12326844615749569,-0.6496455746450505,5.297738801026999,2.39150929956674
5.285285285285285,4.252958871967553,2.347319416255543,-0.04437198537421799,-0.5247606771310177,5.153121587616743,2.230795977387886
5.305305305305305,4.823269629545631,1.9223717223919978,0.05125698424568062,-0.7038223909717146,5.322045876616356,2.434616898951861
5.325325325325325,4.823269629545631,1.9223717223919978,0.010374771267610659,-0.6318036088171,5.1786054056638395,2.5149954815612494
5.345345345345345,4.823269629545631,1.9223717223919978,-0.18281634130385646,-0.6171563583570673,5.503796887900174,2.2101152320039725
5.365365365365365,4.823269629545631,1.9223717223919978,0.018841839183834204,-0.6292247823131213,5.260011253095174,2.1206807329469064
5.385385385385385,4.823269629545631,1.9223717223919978,-0.03346088793700727,-0.446300546061387,5.4035532236767905,2.151618078512584
5.405405405405405,4.773498211375342,3.2925428677562003,-0.05389329333031101,-0.37739808052530194,5.375065973802955,2.1590656539411883
5.425425425425425,4.773498211375342,3.2925428677562003,-0.22889828283179825,-0.46985657203539866,5.3193979565722325,2.191162978835786
5.445445445445445,4.773498211375342,3.2925428677562003,0.08280245089791904,-0.5814005083522173,5.448820253222099,2.0286037691943615
5.465465465465465,4.773498211375342,3.2925428677562003,-0.037824689013350045,-0.6269579735591329,5.525227699564522,2.0251990774415445
5.485485485485485,4.773498211375342,3.2925428677562003,0.06207406301236412,-0.5997270699471579,5.5669623593650694,2.0584244813161594
5.505505505505505,6.243014281340485,1.817369672065675,-0.10838077938564283,-0.3137539340621877,5.47988738186503,1.8536302879453996
5.525525525525525,6.243014281340485,1.817369672065675,-0.018898631456865,-0.587375965826316,5.618757148973778,1.8389514921340866
5.545545545545545,6.243014281340485,1.817369672065675,0.1260726356767549,-0.5243715216996223,5.536577631078947,1.8267196880940797
5.565565565565565,6.243014281340485,1.817369672065675,-0.09362983111469629,-0.2380037319192981,5.499538391652729,1.459669994307294
5.585585585585585,6.243014281340485,1.817369672065675,-0.06972262253925947,-0.2075954548486586,5.54877711184683,1.701229161328767
5.605605605605605,6.191697432360122,2.1659724626366508,0.09170152166822378,-0.39452834416672167,5.769585890385091,1.804738693948443
5.625625625625625,6.191697432360122,2.1659724626366508,-0.04111323006960032,-0.4132485648532587,5.575624256329069,1.6349888256004628
5.645645645645645,6.191697432360122,2.1659724626366508,0.21614616260198716,-0.42603519609244805,5.665702797042374,1.4359431992034355
5.665665665665665,6.191697432360122,2.1659724626366508,-0.030071016508532514,-0.2926581019116327,5.57729288251216,1.5166760341213525
5.685685685685685,6.191697432360122,2.1659724626366508,0.009728298281753207,-0.3265261845873982,5.751636607377245,1.4913793358094163
5.7057057057057055,5.5251707490945945,2.085252700050038,0.17686921127147823,-0.322871940980827,5.703196293433233,1.389060886008443
5.7257257257257255,5.5251707490945945,2.085252700050038,0.16689553553615422,-0.48643532360953723,5.788363540383324,1.256387328597881
5.7457457457457455,5.5251707490945945,2.085252700050038,0.07139954845354848,-0.19167215996391015,5.758981107429405,1.3008207598183372
5.7657657657657655,5.5251707490945945,2.085252700050038,-0.04577798473073907,-0.4921398792617825,5.6743079667126235,1.304799960872679
5.7857857857857855,5.5251707490945945,2.085252700050038,0.0322528263593165,-0.39539761914363475,5.742397834328398,1.0725171264147157
5.8058058058058055,5.420544925895919,1.6381151617777316,0.03177965024118353,-0.4414323994805504,5.798661336874069,1.186551387378593
5.8258258258258255,5.420544925895919,1.6381151617777316,-0.01675223136455704,-0.09838423148660733,5.8797405418304605,1.0664129587249946
5.8458458458458455,5.420544925895919,1.6381151617777316,0.0012654578489604054,-0.284763318465527,5.992585107705311,1.1307030910917983
5.865865865865866,5.420544925895919,1.6381151617777316,0.10931053948368763,-0.273705661750686,5.85906685742322,1.0179352356839355
5.885885885885886,5.420544925895919,1.6381151617777316,0.15794849482638945,-0.2259614609216111,6.040249669598449,1.083132900194014
5.905905905905906,6.749267089761621,1.76286328218579,-0.04205070401306372,-0.4173919051929442,6.083132385529514,0.8871772485401741
5.925925925925926,6.749267089761621,1.76286328218579,0.14901652931100529,-0.342548063451683,5.8349214930188085,0.936088755430208
5.945945945945946,6.749267089761621,1.76286328218579,-0.04482040869940751,-0.15365471077628098,5.8622724953774785,0.7626070429487531
5.965965965965966,6.749267089761621,1.76286328218579,0.11901161709266297,-0.0869555349126015,5.979859549823115,0.8082206168129232
5.985985985985986,6.749267089761621,1.76286328218579,-0.013400683921569446,-0.14297390394182696,5.893941123269966,0.6354496748371163
6.006006006006006,6.464214827531331,1.1160161879994301,0.03260176466034492,-0.17218752268854845,5.93319590991118,0.6934077219242015
6.026026026026026,6.464214827531331,1.1160161879994301,0.046694183244227444,-0.04317971099696842,6.030783179006064,0.4104662946356581
6.046046046046046,6.464214827531331,1.1160161879994301,0.06718914297729454,-0.09809133754861074,6.130813688056782,0.5150439704516931
6.066066066066066,6.464214827531331,1.1160161879994301,-0.12484548512134085,-0.20277535363963645,6.129604490343913,0.5946334704482731
6.086086086086086,6.464214827531331,1.1160161879994301,0.11922905762505764,-0.04772109912367206,6.192146120022477,0.4854343197210596
6.106106106106106,5.787999516604441,1.3710627436508638,0.0690271702490885,-0.08167127601408558,6.172286954134315,0.5226026533947907
6.126126126126126,5.787999516604441,1.3710627436508638,-0.011131568592555598,-0.21868365019341066,6.214119607886258,0.4507666747530795
6.146146146146146,5.787999516604441,1.3710627436508638,-0.04465776883886277,-0.1220934990748226,6.355847979628728,0.3410092007935339
6.166166166166166,5.787999516604441,1.3710627436508638,-0.08621515803417605,0.06003247435829634,6.124322916016885,0.18598676894591193
6.186186186186186,5.787999516604441,1.3710627436508638,-0.0654181710715341,-0.09601533845581395,6.097408385176856,0.30729296854494875
6.206206206206206,5.7065521390772584,-0.5502117065906352,-0.02095574764601603,-0.20773168671486858,6.033892048485843,0.19357100170097008
6.226226226226226,5.7065521390772584,-0.5502117065906352,0.030685688834969995,-0.14336608452223115,6.0567861064869986,0.08029878263514913
6.246246246246246,5.7065521390772584,-0.5502117065906352,-0.05551175986635372,-0.08893501560264053,6.183438368238034,0.07784215193507144
6.266266266266266,5.7065521390772584,-0.5502117065906352,-0.16296044738607465,-0.2326347392954871,6.288321997682608,-0.006133902787480834
6.286286286286286,5.7065521390772584,-0.5502117065906352,-0.041109258709209076,0.12478411334253306,6.335995240105227,0.13799444156202836
6.306306306306306,5.787798945397651,-0.5687730443822344,0.05894348428841334,0.049277459929127854,6.262887279774013,-0.20240490149421225
6.326326326326326,5.787798945397651,-0.5687730443822344,-0.08513520090847543,-0.005185670814569717,6.2086986789708565,-0.11376205575068676
6.346346346346346,5.787798945397651,-0.5687730443822344,-0.11295152947397924,0.09306499314661865,6.316892144802866,-0.13338002266945664
6.366366366366366,5.787798945397651,-0.5687730443822344,0.009635596132626295,0.05918115854188019,6.421927756998966,-0.24709200696826555
6.386386386386386,5.787798945397651,-0.5687730443822344,-0.00805218438742612,0.07612522544988373,6.386791741308286,-0.20755133365969214
6.406406406406406,5.968178284916748,-1.2750433970003499,-0.01925444302135042,0.061022912929682524,6.517640463748879,-0.43300555468254975
6.426426426426427,5.968178284916748,-1.2750433970003499,0.027880273953357317,0.037651791759871746,6.3414265426460545,-0.43008466975678067
6.446446446446447,5.968178284916748,-1.2750433970003499,0.02056190979999381,-0.14750375955948927,6.448553941100537,-0.46888859072723543
6.466466466466467,5.968178284916748,-1.2750433970003499,0.046595295406975476,0.057270957964491324,6.614302354860375,-0.35985326694757297
6.486486486486487,5.968178284916748,-1.2750433970003499,0.03223878502472249,0.3352174110333318,6.642633141393782,-0.49804443676904153
6.506506506506507,6.82922682656615,-0.2667854040061437,0.2567843418064228,0.06125816533504405,6.451981741780855,-0.5464839970689226
6.526526526526527,6.82922682656615,-0.2667854040061437,0.037433962191063284,0.02555800652560608,6.430828375868784,-0.6901985075881192
6.546546546546547,6.82922682656615,-0.2667854040061437,-0.04171132582730397,0.14226317209907044,6.410563402083194,-0.6294454513704045
6.566566566566567,6.82922682656615,-0.2667854040061437,0.09700558571269588,0.2632675047015716,6.5542125615887725,-0.5701703166649801
6.586586586586587,6.82922682656615,-0.2667854040061437,0.13187252487600395,0.07045668163531976,6.568841966483806,-0.7036517826910524
6.606606606606607,6.636770323493035,-0.34267364066814093,-0.02909636999970798,0.03394057134583589,6.580231927001249,-0.7817451078683018
6.626626626626627,6.636770323493035,-0.34267364066814093,0.005820284789488937,0.2874939436905056,6.6790881270490505,-0.8384084469740061
6.646646646646647,6.636770323493035,-0.34267364066814093,-0.18449900771263827,0.23605603051579624,6.813604646293078,-0.757583288114573
6.666666666666667,6.636770323493035,-0.34267364066814093,-0.029572836289646683,0.2744202834181028,6.603982364428365,-0.898468163057185
6.686686686686687,6.636770323493035,-0.34267364066814093,0.06051334182342419,0.47020819600020625,6.759361070231287,-0.8726338744103935
6.706706706706707,6.179923093951987,-0.9621907864048895,0.09770530475997365,0.4750155133763172,6.712944544755479,-0.9011004632005273
6.726726726726727,6.179923093951987,-0.9621907864048895,0.031086411562645834,0.18192789588306962,6.671521027578505,-1.1324165064684657
6.746746746746747,6.179923093951987,-0.9621907864048895,-0.10586249354312934,0.36674373297621815,6.8082583912679615,-0.9632498215438776
6.766766766766767,6.179923093951987,-0.9621907864048895,-0.10914416280165834,0.2051163844386632,6.7220338006737546,-1.1048653208400046
6.786786786786787,6.179923093951987,-0.9621907864048895,0.05962452456109462,0.44383867366256646,6.701673957146504,-1.28638815366667
6.806806806806807,7.295668985986182,-1.3464537173477655,0.00010568618158318727,0.12510597912947674,6.7860518171301285,-1.1722800050257505
6.826826826826827,7.295668985986182,-1.3464537173477655,-0.0590411062914213,0.35551065058356074,6.735387346643259,-1.3668902423478442
6.846846846846847,7.295668985986182,-1.3464537173477655,-0.1400195356866842,0.3565496951261217,6.8182905823514535,-1.3668780722750948
6.866866866866867,7.295668985986182,-1.3464537173477655,-0.14180840457286367,0.18904627137434404,6.738529288835234,-1.5388092238985858
6.886886886886887,7.295668985986182,-1.3464537173477655,-0.06004200982890076,0.24892360784647904,6.940408407561359,-1.5019662454947473
6.906906906906907,6.97356571018149,-2.2193113857721047,0.00864737253748296,0.3328183365646824,6.884074294581549,-1.6899996887139905
6.926926926926927,6.97356571018149,-2.2193113857721047,0.01849185397690765,0.494933173300571,6.977713186268931,-1.5856597680534035
6.946946946946947,6.97356571018149,-2.2193113857721047,-0.12298075316871022,0.5206255301391707,7.063694401807148,-1.4649191529107028
6.966966966966967,6.97356571018149,-2.2193113857721047,0.07969043353571523,0.419388195714921,6.941019338972375,-1.7073030663289843
6.986986986986987,6.97356571018149,-2.2193113857721047,-0.0014737827207986262,0.4020848810643219,6.973631665837385,-1.6443283297004592
7.007007007007007,7.11238550324473,-1.7926808726657557,-0.03089819735129089,0.38618599065530934,7.100487168283536,-1.7621584271104862
7.027027027027027,7.11238550324473,-1.7926808726657557,0.04435650132476344,0.5889003681937708,7.10340650749855,-1.7581579398391782
7.047047047047047,7.11238550324473,-1.7926808726657557,-0.02862060376166895,0.5553599691935821,7.049289868460121,-1.9262417749491327
7.067067067067067,7.11238550324473,-1.7926808726657557,-0.10756040588920002,0.6404119031061238,7.0416377849376905,-1.841846768308852
7.087087087087087,7.11238550324473,-1.7926808726657557,-0.10803568504136625,0.6123794019767783,7.112700792650985,-1.991807758017984
7.107107107107107,7.384210963274549,-1.5711508596259152,0.023099699671477365,0.4773003020378486,6.981168989349254,-2.0643662754592826
7.127127127127127,7.384210963274549,-1.5711508596259152,-0.13364539014240517,0.40036494205338446,6.960306920505939,-2.125214308817813
7.147147147147147,7.384210963274549,-1.5711508596259152,-0.13048302222279548,0.7123935435835382,7.145897238002073,-2.068037608232382
7.167167167167167,7.384210963274549,-1.5711508596259152,-0.09706715562246357,0.6052324108927218,7.113127712191101,-2.0390366716127657
7.187187187187187,7.384210963274549,-1.5711508596259152,-0.034167252872051634,0.5510196938880519,7.1967109735275105,-2.1092400037646404
7.207207207207207,8.76068406784141,-1.8666561149332648,0.07621759605195345,0.6587601943629724,7.125312366124503,-2.123785613715251
7.227227227227227,8.76068406784141,-1.8666561149332648,0.014704894751298402,0.6279912052325978,7.270941020977589,-2.281632571408007
7.247247247247247,8.76068406784141,-1.8666561149332648,-0.06188688545233793,0.6541480124587185,7.303278922768121,-2.1701483539342674
7.267267267267267,8.76068406784141,-1.8666561149332648,-0.03170736155460589,0.39053894063321126,7.195258905699287,-2.37249612041782
7.287287287287287,8.76068406784141,-1.8666561149332648,0.1613736777276882,0.7698758717815036,7.501113769834207,-2.2571877030982326
7.307307307307307,7.668275304105072,-2.455626540338839,0.013052507308434227,0.5373260935608267,7.458243364901748,-2.48440266779536
7.327327327327327,7.668275304105072,-2.455626540338839,0.07145214456520668,0.6115383211614717,7.089498152798989,-2.4459753603297374
7.347347347347347,7.668275304105072,-2.455626540338839,0.09242399155402066,0.7479890904949574,7.179953880564417,-2.442121478429912
7.367367367367367,7.668275304105072,-2.455626540338839,-0.036376552365179886,0.5814504500024793,7.234044628277835,-2.6839397121171906
7.387387387387387,7.668275304105072,-2.455626540338839,0.13567985681953018,0.6534761133873509,7.258121440097175,-2.8630336862580874
7.407407407407407,7.408617130470645,-3.855756868482686,0.13562484957089033,0.6483068170347617,7.514802357187442,-2.8406269961374684
7.4274274274274275,7.408617130470645,-3.855756868482686,-0.14251260775972863,0.6124837559071188,7.324867731850825,-2.639885533760124
7.4474474474474475,7.408617130470645,-3.855756868482686,0.12856271254010973,0.5627381546177971,7.494450001350069,-2.632718217671286
7.4674674674674675,7.408617130470645,-3.855756868482686,0.03798390584553582,0.7553334620944683,7.497466332578469,-2.8051605367289243
7.4874874874874875,7.408617130470645,-3.855756868482686,0.299538255507713,0.6929544751752585,7.357100069892372,-2.9448961030168093
7.5075075075075075,7.588303633356855,-3.623113627652625,-0.1600944544269829,0.7031717210224427,7.5413771840928945,-2.6899368175543312
7.5275275275275275,7.588303633356855,-3.623113627652625,-0.09468740128640671,0.9167648487496372,7.406925771262521,-2.954826801155535
7.5475475475475475,7.588303633356855,-3.623113627652625,-0.08108595306114375,0.6954103323911865,7.544642564321937,-3.0131472753698167
7.5675675675675675,7.588303633356855,-3.623113627652625,0.014858679039724319,0.7878179970084794,7.5710785689013145,-2.960754113224221
7.587587587587588,7.588303633356855,-3.623113627652625,0.3423401506887421,0.687702713284971,7.7838794396780004,-3.1675957158395875
7.607607607607608,7.617520422086327,-2.567684256527073,0.006636955613170452,0.626431667453837,7.783183764410037,-3.1066664591703264
7.627627627627628,7.617520422086327,-2.567684256527073,-0.048575939801694376,0.7001088537693835,7.727817994471934,-3.1365594582678895
7.647647647647648,7.617520422086327,-2.567684256527073,0.08269472592098326,0.7008467535436339,7.68297259474624,-3.1084533691786653
7.667667667667668,7.617520422086327,-2.567684256527073,-0.07851240928500154,0.9322145141761391,7.571456680092985,-3.2087576921414462
7.687687687687688,7.617520422086327,-2.567684256527073,-0.008141897392095412,0.7997341731787172,7.750170178134763,-3.1865110488206927
7.707707707707708,7.518062836119314,-3.031868519519427,-0.07647438770890937,0.8543804622657192,7.678821949344885,-3.1890643988951437
7.727727727727728,7.518062836119314,-3.031868519519427,-0.14179709716232725,0.9990629549709041,7.636133813309766,-3.32487191952945
7.747747747747748,7.518062836119314,-3.031868519519427,-0.039802836679281445,0.9158495917268107,7.786922838281261,-3.3368221889136844
7.767767767767768,7.518062836119314,-3.031868519519427,0.11752072272098267,0.9616359317057805,7.725449438763095,-3.350406744613649
7.787787787787788,7.518062836119314,-3.031868519519427,0.16204885815083342,0.9305566943394538,7.677029724051531,-3.3385217272546925
7.807807807807808,7.973129924377486,-3.0308141874820165,-0.13089962600722077,0.7812819806209998,7.688824422949195,-3.4748126445578698
7.827827827827828,7.973129924377486,-3.0308141874820165,-0.004224369116058914,0.8441070196154069,8.000645249108775,-3.6143805110407885
7.847847847847848,7.973129924377486,-3.0308141874820165,-0.08243334343086015,1.0194841234454342,8.000300530151032,-3.560787197872253
7.867867867867868,7.973129924377486,-3.0308141874820165,0.15305423256919254,0.7357753883179923,7.686273694601092,-3.6090749559732758
7.887887887887888,7.973129924377486,-3.0308141874820165,0.13090318154159494,0.9231435809553786,7.861860750129178,-3.5241336535805883
7.907907907907908,7.878763621702619,-3.0688931029201783,-0.11124059605125587,0.8852205119663795,7.944068684800102,-3.6065969725628384
7.927927927927928,7.878763621702619,-3.0688931029201783,-0.024603529725262616,0.8474657648574209,7.901311373313542,-3.555001971164231
7.947947947947948,7.878763621702619,-3.0688931029201783,-0.018420855936081785,0.7641607319231524,7.9780631416651,-3.7676092305912547
7.967967967967968,7.878763621702619,-3.0688931029201783,0.003985943264600218,0.9503614981832688,7.91666021492073,-3.873282989048286
7.987987987987988,7.878763621702619,-3.0688931029201783,0.03247441804767136,0.9151973826534551,7.9101463127532154,-3.6012032096013367
8.008008008008009,8.22386630050214,-3.856442125934193,-0.046236353121067525,1.0247899762478259,8.150451721108075,-3.82332444584312
8.028028028028029,8.22386630050214,-3.856442125934193,-0.026663786848417876,1.0957392412377922,8.137518239414202,-3.9765640911910105
8.048048048048049,8.22386630050214,-3.856442125934193,-0.033247486682286026,0.8857772739753655,8.040641991555473,-3.7187286879292634
8.068068068068069,8.22386630050214,-3.856442125934193,-0.03674754533345413,1.0232959251867213,8.121764631772622,-3.791558581921164
8.088088088088089,8.22386630050214,-3.856442125934193,-0.0865415590754625,0.8913389227521917,7.954774160239937,-4.083442050361432
8.108108108108109,7.760766906901724,-3.977403798411751,0.14224143622878174,0.8584984930028365,8.027901852458301,-4.0226754986911
8.128128128128129,7.760766906901724,-3.977403798411751,-0.029179953652883825,0.9722344538383687,8.210704627778455,-4.054305272951173
8.148148148148149,7.760766906901724,-3.977403798411751,-0.05302512173956632,1.0399355494622238,8.153452623745853,-4.148528436322045
8.168168168168169,7.760766906901724,-3.977403798411751,-0.06240882728905809,0.943156237348774,8.192320099340069,-3.8644557191897007
8.188188188188189,7.760766906901724,-3.977403798411751,0.07851571624448461,1.057837925495238,8.117303899103673,-4.0917810168992705
8.208208208208209,8.136414645326344,-3.7923444651463427,0.07519838348092572,0.9799849802637015,8.147602093027992,-4.027815645832877
8.228228228228229,8.136414645326344,-3.7923444651463427,0.09428566032259925,1.1882603845514983,8.1986134745255,-4.190407725914608
8.248248248248249,8.136414645326344,-3.7923444651463427,0.1888726082724592,0.985262116482239,8.187527387360714,-4.1833589585259325
8.268268268268269,8.136414645326344,-3.7923444651463427,-0.20828009274669368,1.0565663409128687,8.286746742770244,-4.381354017986034
8.288288288288289,8.136414645326344,-3.7923444651463427,0.17815392293309304,1.15971908562345,8.353586651962805,-4.143745559572924
8.308308308308309,8.044252191499252,-3.777061425238077,-0.13518438400709346,0.9833110114185004,8.355983018980588,-4.226303195205469
8.328328328328329,8.044252191499252,-3.777061425238077,-0.02683526399738105,1.0306118604739636,8.344854735211996,-4.268621758587067
8.348348348348349,8.044252191499252,-3.777061425238077,-0.02121581551819339,0.9365855361524427,8.368677103234438,-4.091033391937185
8.368368368368369,8.044252191499252,-3.777061425238077,0.02129457468506517,0.9949047411987855,8.521883723652355,-4.088290956990832
8.388388388388389,8.044252191499252,-3.777061425238077,0.23419036238541457,1.0818509889822923,8.260389305649435,-4.326153797708425
8.408408408408409,9.021796174889847,-4.7671135241496225,-0.1503911491076203,1.031504891363364,8.330005217261936,-4.25409485029194
8.428428428428429,9.021796174889847,-4.7671135241496225,0.0514048014178089,1.2092504970706122,8.40234967137297,-4.1861353026618096
8.448448448448449,9.021796174889847,-4.7671135241496225,0.043393136680832195,1.0672707939183503,8.38550109698542,-4.482820388752578
8.468468468468469,9.021796174889847,-4.7671135241496225,0.022582823948978745,1.2239119477660465,8.567582844428882,-4.399579729136841
8.488488488488489,9.021796174889847,-4.7671135241496225,0.09166543992466886,1.1400373785835456,8.55955807398809,-4.391622132870872
8.508508508508509,7.890330359115968,-5.0955668373831955,-0.04176694659733201,1.2391581173647455,8.619625515176947,-4.489598252303417
8.528528528528529,7.890330359115968,-5.0955668373831955,-0.05063741414105475,1.1313933429385774,8.401185065596492,-4.4428935499518625
8.548548548548549,7.890330359115968,-5.0955668373831955,0.10961857969941986,1.1237566033991826,8.610914053606061,-4.544367376923275
8.568568568568569,7.890330359115968,-5.0955668373831955,-0.05164648298274474,1.0084475179678682,8.571936710028307,-4.708245305204545
8.588588588588589,7.890330359115968,-5.0955668373831955,0.029869824189058633,1.1086155967523408,8.39944613031349,-4.657933459294444
8.608608608608609,8.582728533294063,-4.780555076582378,0.15088039896275598,1.13764205066005,8.565317072291332,-4.598034245365211
8.62862862862863,8.582728533294063,-4.780555076582378,0.030077366490787932,1.2244555432656403,8.812467678081092,-4.6831839171599245
8.64864864864865,8.582728533294063,-4.780555076582378,-0.005232588657835036,1.2172433586247977,8.609349634141113,-4.764791386830666
8.66866866866867,8.582728533294063,-4.780555076582378,-0.08208014494664789,1.1183327215325147,8.802722531139585,-4.655088923440799
8.68868868868869,8.582728533294063,-4.780555076582378,0.0012461698998158651,0.9982376443314754,8.845862825223124,-4.6583150692728115
8.70870870870871,8.647928125545315,-4.259128298088843,-0.11359414058173051,1.2263463930782326,8.818138062428154,-4.820340204964102
8.72872872872873,8.647928125545315,-4.259128298088843,-0.13683396015075083,1.0580457868550013,8.738187488986771,-4.6681457372314155
8.74874874874875,8.647928125545315,-4.259128298088843,0.05572380163433004,1.1743558526285809,8.759893581669683,-4.615999887549205
8.76876876876877,8.647928125545315,-4.259128298088843,-0.14826386946017361,0.9330479925752524,8.813151951457883,-4.7533433626858494
8.78878878878879,8.647928125545315,-4.259128298088843,0.09149806824200798,1.2308076976260245,8.859855506080057,-4.709404165425173
8.80880880880881,8.76698690488475,-5.063938255665032,0.020856580407773155,1.3933774058971173,9.087942130898885,-4.7419529737306485
8.82882882882883,8.76698690488475,-5.063938255665032,0.039365242494707485,1.0701965074654354,8.71854228664639,-4.767423093048124
8.84884884884885,8.76698690488475,-5.063938255665032,-0.0035256313557750947,1.229640528893959,8.784114654192003,-4.712080281467488
8.86886886886887,8.76698690488475,-5.063938255665032,-0.13083380670142764,1.3275338263809273,8.81923015462233,-4.9286849425009125
8.88888888888889,8.76698690488475,-5.063938255665032,0.002914172095514117,1.2104203873498411,8.764852733407826,-4.9495525601517985
8.90890890890891,8.783403884414763,-5.618106600064824,-0.11097980975807893,1.1456138686854074,9.066800638356188,-4.869842094957385
8.92892892892893,8.783403884414763,-5.618106600064824,0.2406705783026807,1.3887820287818435,8.899616606934861,-4.843435897790937
8.94894894894895,8.783403884414763,-5.618106600064824,0.00964634463802317,1.3239205903542177,8.878220299753712,-4.819088124085083
8.96896896896897,8.783403884414763,-5.618106600064824,0.06411998891095992,1.1069916099495407,9.202398481798545,-4.9141505990716725
8.98898898898899,8.783403884414763,-5.618106600064824,-0.008175898996113137,1.2163397420647384,9.073096929153476,-4.951222651025473
9.00900900900901,8.375846698365887,-5.009337942304779,-0.15734558932438258,1.2931275499988772,9.033943477317859,-4.929197679231539
9.02902902902903,8.375846698365887,-5.009337942304779,-0.017972141345081228,1.2556948873122629,9.032172112079925,-5.234740845023128
9.04904904904905,8.375846698365887,-5.009337942304779,-0.1350451978389394,1.0784028063081634,9.0043306040559,-4.8179244756974535
9.06906906906907,8.375846698365887,-5.009337942304779,-0.09310677474726009,1.2361822786359633,9.004613645507298,-4.846636473381088
9.08908908908909,8.375846698365887,-5.009337942304779,0.08793926509387834,1.3115152661952012,9.070578915562015,-5.02753612349896
9.10910910910911,8.55144372021669,-4.918255927160655,-0.029560041055827997,1.1572447555890466,9.064769389214522,-5.011078278146118
9.12912912912913,8.55144372021669,-4.918255927160655,-0.09191463542404679,1.424963924332853,9.134210251530032,-4.825510026779207
9.14914914914915,8.55144372021669,-4.918255927160655,0.007366033945345338,1.4038549157621236,9.171642471792882,-5.015630409251602
9.16916916916917,8.55144372021669,-4.918255927160655,0.003717816968128199,1.174639777182135,9.205961930851968,-5.047334706355111
9.18918918918919,8.55144372021669,-4.918255927160655,0.015644134876713355,1.2847522961980933,9.161222488200197,-4.969935122603577
9.20920920920921,10.616790091931096,-3.799977367307207,0.04672150455257924,1.2159401511669277,9.249307469140307,-5.153651968480133
9.22922922922923,10.616790091931096,-3.799977367307207,-0.034170191699514026,1.2353077459495683,9.136388448465368,-5.050769869490132
9.24924924924925,10.616790091931096,-3.799977367307207,-0.042045384665973504,1.4937867331407595,9.178201805013062,-4.9402421961948635
9.26926926926927,10.616790091931096,-3.799977367307207,0.0876161499845789,1.0003355100000852,9.257692833652913,-4.895809854661709
9.28928928928929,10.616790091931096,-3.799977367307207,-0.006212201867644703,1.2434681006594104,9.081762625932747,-4.793586184843645
9.30930930930931,9.450600617242264,-5.005004276012456,0.06309413168578347,1.2543955553850037,9.361717911556106,-4.839914766213131
9.32932932932933,9.450600617242264,-5.005004276012456,-0.04946270860936168,1.2357495639987828,9.2396163901977,-5.064818399078648
9.34934934934935,9.450600617242264,-5.005004276012456,0.0582307207719204,1.3390208205355358,9.38984406050355,-5.069946927112084
9.36936936936937,9.450600617242264,-5.005004276012456,-0.07847776930438614,1.3101246596763423,9.347434674803822,-4.958847430727075
9.38938938938939,9.450600617242264,-5.005004276012456,-0.13047023301873478,1.1992663088264532,9.284609849919988,-5.208742798591956
9.40940940940941,9.613839682062327,-4.610295233630618,0.08719789392366008,1.186359129159404,9.586890787114491,-5.06677729855866
9.42942942942943,9.613839682062327,-4.610295233630618,0.17190173392248315,1.2444655193705307,9.66987215091552,-5.010823020379498
9.44944944944945,9.613839682062327,-4.610295233630618,-0.03570641754313854,1.1074286734890149,9.289046991319477,-5.104073312545219
9.46946946946947,9.613839682062327,-4.610295233630618,-0.0009672827892952485,1.2428180155434159,9.22977932907017,-4.904541603571015
9.48948948948949,9.613839682062327,-4.610295233630618,0.007786423723673004,1.2214803037023563,9.532841970403076,-5.019418987609335
9.50950950950951,8.830408323439709,-4.547656885564222,0.05164981884296879,1.1998007494425986,9.450924522857035,-5.319877333483362
9.52952952952953,8.830408323439709,-4.547656885564222,-0.17851997413238996,1.24604644056597,9.608443963204978,-5.121819652217671
9.54954954954955,8.830408323439709,-4.547656885564222,0.122075278040643,1.1331562429932238,9.576910395238553,-5.039079430455599
9.56956956956957,8.830408323439709,-4.547656885564222,0.21049126401503143,1.3711076650903065,9.485466995717479,-4.855925095210546
9.58958958958959,8.830408323439709,-4.547656885564222,0.16608041491713849,1.123411144336318,9.67895248457532,-5.076597130845428
9.60960960960961,9.14441083629349,-4.487100565265811,0.09730695956079218,1.3322491413829152,9.650500678876154,-4.9468959294017845
9.62962962962963,9.14441083629349,-4.487100565265811,0.016612789673239255,1.2036856275672936,9.456556898864653,-4.986485920048184
9.64964964964965,9.14441083629349,-4.487100565265811,-0.037535222674499644,1.18402717990827,9.58023292867937,-4.935789746796003
9.66966966966967,9.14441083629349,-4.487100565265811,-0.013625463517966549,1.2893433419994202,9.747927610874266,-4.790351117908488
9.68968968968969,9.14441083629349,-4.487100565265811,0.00045384915359090875,1.040427450462962,9.77657487212588,-5.03892545009649
9.70970970970971,9.477886679820944,-5.152371942370618,0.028900292829876457,1.218006406417601,9.705735461443801,-4.83184400001577
9.72972972972973,9.477886679820944,-5.152371942370618,-0.14593506255398048,1.2623705093333375,9.888022909706423,-5.143926759313468
9.74974974974975,9.477886679820944,-5.152371942370618,0.16008250320991002,1.2966417160150914,9.665915142799086,-4.871429468283318
9.76976976976977,9.477886679820944,-5.152371942370618,-0.0914994698624188,1.2552473013386465,9.856703173686402,-4.9755880734856115
9.78978978978979,9.477886679820944,-5.152371942370618,-0.04640195316276029,1.3697041744198133,9.725144556945123,-4.927663176898862
9.80980980980981,9.044580394542471,-4.78253040852465,0.20649962514056558,1.098418651396712,9.71150002901714,-4.731828669241108
9.82982982982983,9.044580394542471,-4.78253040852465,-0.07741115676992862,1.0909329119150086,9.88073841364985,-4.748245489684993
9.84984984984985,9.044580394542471,-4.78253040852465,-0.18223703612008468,1.2996846470924908,9.751852679063163,-4.859138283167866
9.86986986986987,9.044580394542471,-4.78253040852465,0.02156812595700413,1.2975299850359705,9.759216026170284,-4.885628150224356
9.88988988988989,9.044580394542471,-4.78253040852465,0.09758499048923412,1.1936602786441628,9.881985103542073,-4.794739564986943
9.90990990990991,10.78172949728263,-4.7120638618801785,-0.07593923168535331,1.2517756749091624,9.890337357675708,-4.698617752809146
9.92992992992993,10.78172949728263,-4.7120638618801785,-0.07362961488216052,1.2688502135748727,9.82906521282855,-4.7893461847780365
9.94994994994995,10.78172949728263,-4.7120638618801785,-0.2088596615007502,1.1711884461916018,9.595513556234135,-4.804744263011155
9.96996996996997,10.78172949728263,-4.7120638618801785,0.014403324841644874,1.200859000799941,9.980923694754722,-4.851449193474216
9.98998998998999,10.78172949728263,-4.7120638618801785,-0.036411555012222374,1.258311734283424,10.085645804301137,-4.816627885264153
10.01001001001001,11.11133081702584,-4.239174036770671,0.11737772953251169,1.1246176701134765,10.023580476720435,-4.592834640757816
10.03003003003003,11.11133081702584,-4.239174036770671,-0.11395935925100831,1.194182968754658,9.992280332944782,-4.7661607592232125
10.05005005005005,11.11133081702584,-4.239174036770671,0.0664628993874541,1.16974946739481,10.02427984297017,-4.697330208941818
10.07007007007007,11.11133081702584,-4.239174036770671,0.16653113853366314,1.1613589919095593,10.03840651144454,-4.7706261574020195
10.09009009009009,11.11133081702584,-4.239174036770671,0.0023050649732962647,1.321448229185747,9.965011888233551,-4.83248151407622
10.11011011011011,9.537488439009895,-5.2605443296080985,-0.08737796999606619,1.1423399285835665,9.950429748723051,-4.634559491084661
10.13013013013013,9.537488439009895,-5.2605443296080985,-0.03129974517602312,1.211942470441075,10.247183449940113,-4.616257005085738
10.15015015015015,9.537488439009895,-5.2605443296080985,0.03837375941587947,0.9701786616987919,10.26283052245878,-4.74665457706207
10.17017017017017,9.537488439009895,-5.2605443296080985,-0.14392813441992933,1.2587614171762458,10.254790698565149,-4.673575483238818
10.19019019019019,9.537488439009895,-5.2605443296080985,0.08352013504122477,1.2521236377281768,10.168371911390937,-4.611053783635439
10.21021021021021,11.477338821086759,-4.756638682102205,0.13359421891963338,1.1352110643578643,10.325539272544976,-4.792915588376753
10.23023023023023,11.477338821086759,-4.756638682102205,-0.03694466648256039,1.170565143130863,10.27486001536851,-4.688125858060984
10.25025025025025,11.477338821086759,-4.756638682102205,-0.0601078216867447,1.1817404790950665,10.102560246311395,-4.440499956687926
10.27027027027027,11.477338821086759,-4.756638682102205,0.04450806137667789,0.97823120034443,10.195842601837244,-4.4144649024810345
10.29029029029029,11.477338821086759,-4.756638682102205,0.09333891665201936,1.239997273138605,10.250738791625523,-4.403074232467866
10.31031031031031,11.160751774143105,-4.502584535058723,-0.044266312350727754,1.1181989088969797,10.293584424404857,-4.547950799603427
10.33033033033033,11.160751774143105,-4.502584535058723,0.10389535636926282,1.2774841092651457,10.219552918365313,-4.586173880438025
10.35035035035035,11.160751774143105,-4.502584535058723,-0.15746183672808947,1.2075887580277354,10.454382571967006,-4.372387591828302
10.37037037037037,11.160751774143105,-4.502584535058723,-0.1054502564825717,1.0132374409596403,10.278316312851256,-4.48157034218621
10.39039039039039,11.160751774143105,-4.502584535058723,-0.057320542472013326,1.2997138286046421,10.427067971037738,-4.480931842886535
10.41041041041041,10.14022002477935,-4.234068432164987,0.001744682774599376,1.118513799925458,10.52357878653079,-4.403531376569473
10.43043043043043,10.14022002477935,-4.234068432164987,-0.012976461094711076,1.2166405982797344,10.484004341390115,-4.405024322301699
10.45045045045045,10.14022002477935,-4.234068432164987,-0.10491404287761813,1.075419519833707,10.42049767037038,-4.326250152173017
10.47047047047047,10.14022002477935,-4.234068432164987,0.1714001488729685,0.9060613056903529,10.466136401687947,-4.355338166995684
10.49049049049049,10.14022002477935,-4.234068432164987,-0.0820440160975629,1.1789085310284266,10.630970757675458,-4.477344819087889
10.51051051051051,11.567183826950656,-4.617050044003622,-0.045958356940255095,1.0374558834317793,10.481727299397718,-4.254441752040687
10.53053053053053,11.567183826950656,-4.617050044003622,-0.11139265088277933,1.095339641428089,10.440949974550936,-4.30080401830106
10.55055055055055,11.567183826950656,-4.617050044003622,-0.01748446802531241,1.193888323363382,10.594474787922003,-4.345361872148291
10.57057057057057,11.567183826950656,-4.617050044003622,-0.11996855682520513,1.0961342990365188,10.570229942022339,-4.272994078146594
10.59059059059059,11.567183826950656,-4.617050044003622,0.003943064771296524,0.8194045872032517,10.637771431717717,-4.041058217076883
10.61061061061061,10.365385664789164,-5.000676885371993,0.19258786419460924,0.8247192011658893,10.466688240066206,-4.230731789730692
10.63063063063063,10.365385664789164,-5.000676885371993,-0.010171313226855837,1.0823304226707482,10.560133702503213,-4.109321828576327
10.65065065065065,10.365385664789164,-5.000676885371993,0.03935625412736057,1.0912482421269851,10.771093733779638,-4.088242410418004
10.67067067067067,10.365385664789164,-5.000676885371993,-0.07089819998324141,1.0183631760111813,10.876376235679116,-4.080266470108174
10.69069069069069,10.365385664789164,-5.000676885371993,-0.027226716502413276,1.0165490229337428,10.616757590759807,-4.253420389086027
10.71071071071071,10.507344406101982,-4.157613209302211,-0.2102221489520375,1.1064987841429696,10.724285874972628,-3.971086376115984
10.73073073073073,10.507344406101982,-4.157613209302211,-0.1617807581278371,0.9261496110180869,10.79119336856822,-3.7892487748005346
10.75075075075075,10.507344406101982,-4.157613209302211,0.07235471956705893,1.0589914126549274,10.880721348233187,-3.8804539162856497
10.77077077077077,10.507344406101982,-4.157613209302211,-0.04752449141257941,0.7820946067285203,10.78755321282545,-4.026997269215034
10.79079079079079,10.507344406101982,-4.157613209302211,0.006294539013268845,0.9228057429141653,10.847752444670821,-3.9293866964968145
10.81081081081081,11.080382455737306,-3.400804500702432,-0.015656684064878273,0.8387637347852838,10.772786145961796,-3.7709352731677077
10.83083083083083,11.080382455737306,-3.400804500702432,-0.03601483892416556,0.9771299388961425,10.786492959677297,-3.8666644541757766
10.85085085085085,11.080382455737306,-3.400804500702432,-0.056570527340239866,0.8890403166215828,10.896230868243597,-3.856779592140838
10.87087087087087,11.080382455737306,-3.400804500702432,0.036488070194521535,0.7857094669016912,10.708478271984562,-3.666372754281363
10.89089089089089,11.080382455737306,-3.400804500702432,-0.17341076780591122,0.9080264704739869,10.950803760491063,-3.758729465027479
10.91091091091091,10.894324158380016,-4.271565450689709,0.023398829481521558,0.9763779695068827,11.048888682425078,-3.7604024060284784
10.93093093093093,10.894324158380016,-4.271565450689709,0.05507678991959719,0.7926205492863101,10.949297487555352,-3.706488246571133
10.95095095095095,10.894324158380016,-4.271565450689709,-0.09969951301175407,0.8911930003695944,10.889850935272579,-3.5406171650669513
10.97097097097097,10.894324158380016,-4.271565450689709,0.0660022144284711,0.9157731359283061,10.998628409731204,-3.605810888269164
10.99099099099099,10.894324158380016,-4.271565450689709,0.13433331371512433,0.8324188265421286,10.889113297986448,-3.481435801305033
11.01101101101101,11.592588345577864,-3.010714900247344,0.01085073776139946,0.9261029572658608,10.875653897076468,-3.5684934797000816
11.03103103103103,11.592588345577864,-3.010714900247344,-0.06616190498257343,0.8232771407454186,10.977768785339816,-3.483521280645394
11.05105105105105,11.592588345577864,-3.010714900247344,-0.14194607869517054,1.0375784240295087,11.125659158287805,-3.4756393911942287
11.07107107107107,11.592588345577864,-3.010714900247344,-0.06933296307908936,0.8536013679331526,11.092320116740481,-3.229329675464852
11.09109109109109,11.592588345577864,-3.010714900247344,-0.04668986203359041,0.7606761934675957,10.94094821240808,-3.3621671435568388
11.11111111111111,11.527713269371407,-3.4521279912264218,-0.1482955444981572,0.8856554648828107,11.338575211492348,-3.1821832388959903
11.13113113113113,11.527713269371407,-3.4521279912264218,0.046931022434721026,0.7263949390179163,11.156974966231841,-3.284990874682018
11.15115115115115,11.527713269371407,-3.4521279912264218,-0.09466861338328922,0.696987537519434,11.203239399857559,-3.2628880129731503
11.17117117117117,11.527713269371407,-3.4521279912264218,0.19717071322659896,0.7633383135278906,11.27545588861175,-3.333462646399195
11.19119119119119,11.527713269371407,-3.4521279912264218,0.2010510779029492,0.8875680695029101,11.17162974983457,-3.151766096434105
11.21121121121121,11.195162007514345,-2.7054690061215165,-0.06029736240919906,0.7224099470473543,10.98268890292421,-3.2601377165328804
11.23123123123123,11.195162007514345,-2.7054690061215165,-0.02135106863576934,0.7755910840803832,11.262510204375717,-3.025195931910711
11.25125125125125,11.195162007514345,-2.7054690061215165,-0.1705405580540768,0.7946450308225296,11.35214978595381,-3.04093635029389
11.27127127127127,11.195162007514345,-2.7054690061215165,0.05953740123011536,0.6623518385744681,11.364341287044152,-2.8928219988565433
11.29129129129129,11.195162007514345,-2.7054690061215165,0.2228626944712409,0.5769419179593026,11.513350937948568,-2.887279118783179
11.31131131131131,11.986104358076195,-3.641390648774382,0.17527656959996823,0.6837107795355151,11.27464141840032,-3.017574610899681
11.33133133133133,11.986104358076195,-3.641390648774382,0.17054013886235667,0.47324769339886286,11.319586973520481,-2.877289496692514
11.35135135135135,11.986104358076195,-3.641390648774382,0.23049918196255736,0.8030997368932267,11.4559077974298,-2.874566126996332
11.37137137137137,11.986104358076195,-3.641390648774382,0.014162306485769455,0.7217096674630662,11.461590050415182,-2.684737169831496
11.391391391391391,11.986104358076195,-3.641390648774382,-0.15152539022899192,0.6788770515419781,11.391008689263055,-2.8274831793336292
11.411411411411411,10.233657691267048,-2.268305721067701,0.009715609254342176,0.7436507414259339,11.425523982702837,-2.7566292564445902
11.431431431431431,10.233657691267048,-2.268305721067701,0.005203987346270171,0.6579495686460921,11.378711641187193,-2.623898744041865
11.451451451451451,10.233657691267048,-2.268305721067701,0.14291958535554639,0.6694282294526229,11.359153999696934,-2.8315806639344197
11.471471471471471,10.233657691267048,-2.268305721067701,-0.03217421390036819,0.6064492752217119,11.613285621383238,-2.589044477689164
11.491491491491491,10.233657691267048,-2.268305721067701,-0.13496700798613775,0.6034400532430794,11.48198761117125,-2.554607970714523
11.511511511511511,10.615691611790822,-2.8776973194363498,-0.05020512099392062,0.5005209039243531,11.569124034108233,-2.551747984167902
11.531531531531531,10.615691611790822,-2.8776973194363498,0.0439566294355318,0.5492933945731956,11.46842301314505,-2.4563666417083034
11.551551551551551,10.615691611790822,-2.8776973194363498,0.13932874822017946,0.4978010709670345,11.564058464529902,-2.2467061301531173
11.571571571571571,10.615691611790822,-2.8776973194363498,-0.2517665660589763,0.6554034763673808,11.398214136432616,-2.4610475216207304
11.591591591591591,10.615691611790822,-2.8776973194363498,0.049674958874154844,0.6337242883775154,11.485711596377614,-2.35732449728871
11.611611611611611,11.956780411655146,-2.767393221501303,0.005253130746246625,0.513531676416078,11.541637270621548,-2.24307757361704
11.631631631631631,11.956780411655146,-2.767393221501303,0.042802469658893665,0.5089035013850914,11.792188787012968,-2.2174268497593586
11.651651651651651,11.956780411655146,-2.767393221501303,-0.027119505136273366,0.4401362876278503,11.759765626630196,-2.079647728506238
11.671671671671671,11.956780411655146,-2.767393221501303,0.023081339372830967,0.6857260933474045,11.862415519731714,-2.1549895969463986
11.691691691691691,11.956780411655146,-2.767393221501303,0.15274109068907604,0.6401607751481313,11.684599091999251,-2.2707915492317454
11.711711711711711,12.13295220018323,-2.9707562796495193,-0.0794543022668947,0.532201064364685,11.726138261954517,-2.0166820669352896
11.731731731731731,12.13295220018323,-2.9707562796495193,0.11193836459386404,0.31212317781011245,11.638764062017074,-2.136767822905561
11.751751751751751,12.13295220018323,-2.9707562796495193,-0.13421451126507453,0.6033984948593777,11.933819763453124,-1.9113303824190482
11.771771771771771,12.13295220018323,-2.9707562796495193,-0.17951556688534007,0.32295409729051483,11.760974908295314,-1.948907466704225
11.791791791791791,12.13295220018323,-2.9707562796495193,-0.00013968349941097304,0.40722843907619477,11.729961260931697,-1.9423716251801344
11.811811811811811,11.507625845225789,-1.8436263998361808,0.1107210408257841,0.3981304008565033,11.721176573059665,-1.9955314990517614
11.831831831831831,11.507625845225789,-1.8436263998361808,-0.06600688351419762,0.5052016621278493,11.84293020543214,-1.7078896103454686
11.851851851851851,11.507625845225789,-1.8436263998361808,-0.029364649852116034,0.27490459212221957,11.920592782617423,-1.7676348955080492
11.871871871871871,11.507625845225789,-1.8436263998361808,0.00609087974210596,0.3918621763407257,11.78517952337605,-1.7381295817488749
11.891891891891891,11.507625845225789,-1.8436263998361808,-0.044864598689662825,0.5352479837089044,11.958351003257626,-1.6595759540408987
11.911911911911911,11.918352940652925,-2.032936093095879,0.047274452257476486,0.3658194431830548,11.909339516245002,-1.7071923455176845
11.931931931931931,11.918352940652925,-2.032936093095879,0.0031285741208406537,0.4110523560707343,12.035050100255654,-1.4491423733081217
11.951951951951951,11.918352940652925,-2.032936093095879,0.05750512312386509,0.32314128980480905,11.797699184961413,-1.5675459700723964
11.971971971971971,11.918352940652925,-2.032936093095879,0.05417577439232826,0.37547484282120497,12.054398724828493,-1.3288126629695656
11.991991991991991,11.918352940652925,-2.032936093095879,0.07422488804801301,0.16934064333043428,11.861161053646823,-1.5146060172128608
12.012012012012011,12.6321645934325,-1.2106770360895749,0.11235858554608698,0.24424242045703037,11.931431269591831,-1.1197408855369013
12.032032032032031,12.6321645934325,-1.2106770360895749,0.0779127758233214,0.12783111148041698,12.014866687710498,-1.4388983369642416
12.052052052052051,12.6321645934325,-1.2106770360895749,-0.15480083396985803,0.3429955697467007,11.943718427606099,-1.2926074961534644
12.072072072072071,12.6321645934325,-1.2106770360895749,-0.047781754616814005,0.3310357648633833,12.214785352449562,-1.2621336538019332
12.092092092092091,12.6321645934325,-1.2106770360895749,-0.032073901433195516,0.3064410295904899,12.126146704252992,-1.2132619838903091
12.112112112112111,11.630126402920324,-0.5335764375974618,0.07252288226089164,0.20138523961153246,12.005628113535334,-1.2537030054481164
12.132132132132131,11.630126402920324,-0.5335764375974618,0.2591727541526358,0.19095024575167338,12.166608237570362,-1.2907071381631916
12.152152152152151,11.630126402920324,-0.5335764375974618,0.0996629520765221,0.411946409021794,12.299646964718152,-1.0122461295777092
12.172172172172171,11.630126402920324,-0.5335764375974618,-0.08769656114534122,0.3601886990946165,12.114475211584187,-0.9714494938835695
12.192192192192191,11.630126402920324,-0.5335764375974618,0.10984213397782804,0.22234769116817765,12.144173993660907,-0.912116032359294
12.212212212212211,11.491273879307682,-1.056499124685417,0.21563875628957307,0.31970014853307943,12.228507518814633,-0.8157043513403082
12.232232232232231,11.491273879307682,-1.056499124685417,0.011059893722040448,0.33205962728150296,12.149724682230415,-0.8843815700421755
12.252252252252251,11.491273879307682,-1.056499124685417,0.01095398221108027,0.14436858358757926,12.084012231085172,-0.6937185991987771
12.272272272272271,11.491273879307682,-1.056499124685417,0.05237332787035029,0.21137949464725891,12.122421322708883,-0.659886422261471
12.292292292292291,11.491273879307682,-1.056499124685417,-0.01841339303058853,0.17701117534110472,12.263984447349358,-0.8621785922544074
12.312312312312311,13.092287725794868,-0.6293333636267953,0.12437691719195439,0.13253500162934326,12.095206021618077,-0.64069040098309
12.332332332332332,13.092287725794868,-0.6293333636267953,0.09854719672430384,0.1010327808320435,12.437474375582926,-0.48568458312616036
12.352352352352352,13.092287725794868,-0.6293333636267953,0.0790909590720997,0.2655148618405759,12.36514385606445,-0.7958403109478089
12.372372372372372,13.092287725794868,-0.6293333636267953,-0.017222552163699913,0.14979029309576436,12.346624993744092,-0.5785238893091403
12.392392392392392,13.092287725794868,-0.6293333636267953,-0.10369115852716307,0.18671499324716465,12.451895082541544,-0.5484797340854496
12.412412412412412,13.070613894329744,-0.9336540532229971,0.09476133731213295,0.35586604437871583,12.377728879881781,-0.16658877923034807
12.432432432432432,13.070613894329744,-0.9336540532229971,0.24693609566108213,0.009554143047632704,12.386988210657417,-0.26973602146117487
12.452452452452452,13.070613894329744,-0.9336540532229971,0.31991688553337316,0.14459692673613692,12.543390293664352,-0.38775537357455614
12.472472472472472,13.070613894329744,-0.9336540532229971,-0.19204345940566095,-0.01631491996388662,12.60280072405697,-0.27955351671365936
12.492492492492492,13.070613894329744,-0.9336540532229971,0.12986232517526597,0.12403753760339316,12.464463282490627,-0.20575396893945572
12.512512512512512,13.010132508048093,-0.6254257693959064,-0.09777273987389212,0.011798854205901196,12.46531919511351,-0.055461021643016986
12.532532532532532,13.010132508048093,-0.6254257693959064,-0.1602701205807369,-0.037785025709935444,12.53252594067601,-0.03950691369582879
12.552552552552552,13.010132508048093,-0.6254257693959064,-0.008837092790387805,0.15392515302317952,12.642794016818423,-0.13068320823538432
12.572572572572572,13.010132508048093,-0.6254257693959064,-0.16227766611548727,0.003039528410991746,12.554056107512439,-0.040989028566639635
12.592592592592592,13.010132508048093,-0.6254257693959064,-0.06413187294039183,0.11118778406944223,12.709775525481868,0.09131923716824453
12.612612612612612,12.43693128235698,-0.6733466993458516,-0.04370920455768252,0.07752059136265016,12.646609585543645,0.1308081692292595
12.632632632632632,12.43693128235698,-0.6733466993458516,0.07051599157548513,-0.06986263452837875,12.58701446404035,0.1648727625282865
12.652652652652652,12.43693128235698,-0.6733466993458516,-0.10526861832496558,-0.1066112205053398,12.607970447165709,-0.02075819588061284
12.672672672672672,12.43693128235698,-0.6733466993458516,-0.10561365534787553,0.04922015848070746,12.4901869054983,0.3975312943933388
12.692692692692692,12.43693128235698,-0.6733466993458516,0.08850447753950368,-0.03647047855787316,12.652178286374566,0.3648105975322378
12.712712712712712,13.043023504459724,-0.4305864528730494,0.057711725648881954,-0.295564149728703,12.657760689380709,0.43805988501018234
12.732732732732732,13.043023504459724,-0.4305864528730494,-0.02691157576586542,-0.05237607720064942,12.816313920541509,0.49825190260578595
12.752752752752752,13.043023504459724,-0.4305864528730494,-0.047334071162606045,0.05302274039373747,12.570420567434825,0.4113214801693572
12.772772772772772,13.043023504459724,-0.4305864528730494,0.06405668768076134,-0.0908319266289273,12.905259032224603,0.5004507586301161
12.792792792792792,13.043023504459724,-0.4305864528730494,-0.022942700237378186,-0.055198953393470904,12.996865233565854,0.5875497631271327
12.812812812812812,12.86107498987994,0.9467844013359554,-0.11093958798536828,-0.12198896655409151,12.901203452284438,0.7413119739833901
12.832832832832834,12.86107498987994,0.9467844013359554,-0.07949248331538447,-0.23643798663345067,12.893551481416004,0.44915063623246193
12.852852852852854,12.86107498987994,0.9467844013359554,-0.24534722209382717,-0.06772974605946949,12.949612003116439,0.7531601001403961
12.872872872872874,12.86107498987994,0.9467844013359554,-0.013349924690445934,-0.20183792894802732,12.984397504450252,1.0649890424053405
12.892892892892894,12.86107498987994,0.9467844013359554,0.05326615554838909,-0.07322095853907723,12.853780171426894,0.7344959192025162
12.912912912912914,12.71765552006347,1.112603409519424,-0.05919948974015235,-0.10689755536954249,12.74550932002058,0.9360548027476481
12.932932932932934,12.71765552006347,1.112603409519424,-0.11386468196662845,-0.14735399263888377,12.752413183219419,0.8564692380551356
12.952952952952954,12.71765552006347,1.112603409519424,0.004029023687502587,-0.16771305025422653,12.84608697805181,0.8165864445156981
12.972972972972974,12.71765552006347,1.112603409519424,0.0010776129724750407,-0.24888683760518868,12.925197043767332,1.0205112361561766
12.992992992992994,12.71765552006347,1.112603409519424,0.013483261380629656,-0.306356380524361,12.894823975708592,1.053680010372992
13.013013013013014,12.330636424634886,0.04308162077333777,-0.0769631231456851,-0.14772258474359481,13.044720442709064,1.4697743397102534
13.033033033033034,12.330636424634886,0.04308162077333777,-0.0727919747825026,-0.31278289043564433,12.992773386441666,1.1063839907478124
13.053053053053054,12.330636424634886,0.04308162077333777,-0.007856298534344946,-0.19298162797989504,12.981327876194191,1.4783622782081667
13.073073073073074,12.330636424634886,0.04308162077333777,-0.08194940429869503,-0.3776878757999994,12.769653985385762,1.406516318324841
13.093093093093094,12.330636424634886,0.04308162077333777,-0.0897734749226224,-0.3380079057131845,13.09943998269208,1.3306179528486177
13.113113113113114,13.216999853564362,0.6588126063561379,-0.07991210190476832,-0.4172785840605068,13.155377794157282,1.3517914090042176
13.133133133133134,13.216999853564362,0.6588126063561379,0.02119548303053332,-0.2029915568409184,13.1846915481346,1.3064053594028093
13.153153153153154,13.216999853564362,0.6588126063561379,0.008370239120624658,-0.5039177991486917,13.144795292353633,1.368318439154064
13.173173173173174,13.216999853564362,0.6588126063561379,-0.01815901315415595,-0.40876074494666303,13.104497232259625,1.613904668868349
13.193193193193194,13.216999853564362,0.6588126063561379,0.0415467319057811,-0.3799919879991929,13.31927692142149,1.5369785619833018
13.213213213213214,13.811638247619095,1.576755701694524,-0.07284845204113082,-0.5121134974816187,13.093836943827457,1.5810029635412062
13.233233233233234,13.811638247619095,1.576755701694524,0.082209657155153,-0.5082662095298986,13.329293325595286,1.4682444538306498
13.253253253253254,13.811638247619095,1.576755701694524,-0.0005911406276277054,-0.43888741678871723,13.148897817548008,1.6753916928618964
13.273273273273274,13.811638247619095,1.576755701694524,-0.0884567743378001,-0.35930469945350324,13.367979389559409,1.7887858639921177
13.293293293293294,13.811638247619095,1.576755701694524,0.10091882620334656,-0.38887265429738327,13.13570619824593,1.8024693149964761
13.313313313313314,12.789239760690155,2.4560032489816943,0.12027099821270998,-0.36765407690468394,13.189734875747694,1.7835812233494994
13.333333333333334,12.789239760690155,2.4560032489816943,0.04811686043152441,-0.38356636230414437,13.485378241505037,2.0984842433958346
13.353353353353354,12.789239760690155,2.4560032489816943,-0.1268045650175753,-0.6715641553694282,13.49217421945546,1.8915150899650217
13.373373373373374,12.789239760690155,2.4560032489816943,0.083668677043857,-0.5277605417257587,13.304893526300624,1.8163077120991
13.393393393393394,12.789239760690155,2.4560032489816943,-0.02597453276703019,-0.5825140167458233,13.40451176951085,1.9947157333182086
13.413413413413414,13.586195700789457,1.8763753008457156,-0.06495454483876087,-0.4080427768904785,13.567020725044202,1.9271207549512912
13.433433433433434,13.586195700789457,1.8763753008457156,0.10141199731347439,-0.3652346518158172,13.35976064656333,1.968376283266108
13.453453453453454,13.586195700789457,1.8763753008457156,-0.11812811288724555,-0.3545595646517961,13.334085657508618,2.178721109327109
13.473473473473474,13.586195700789457,1.8763753008457156,-0.003118653076321936,-0.45499064323222765,13.684218505370039,2.2475773878580947
13.493493493493494,13.586195700789457,1.8763753008457156,-0.07966096481743423,-0.6927075927515097,13.60619649830022,2.2567470618492185
13.513513513513514,12.921663570980824,1.835812231587316,-0.05534507433385758,-0.5800866062135118,13.589461670701453,2.172833788315545
13.533533533533534,12.921663570980824,1.835812231587316,0.08524460690056646,-0.5266106638697476,13.604744078103817,2.2428536900989715
13.553553553553554,12.921663570980824,1.835812231587316,-0.14394102093111277,-0.5130232771849674,13.595103332393276,2.335086506338351
13.573573573573574,12.921663570980824,1.835812231587316,0.3015458091423385,-0.4284308902156937,13.670160490730686,2.406410381946893
13.593593593593594,12.921663570980824,1.835812231587316,-0.0869727852846213,-0.6472480235007404,13.795915384590744,2.368221647141716
13.613613613613614,13.531967011943415,1.8733719532614002,-0.08730881183592218,-0.7288565286961773,13.771496454884542,2.4621822732000807
13.633633633633634,13.531967011943415,1.8733719532614002,0.025742201386373616,-0.5204343253830492,13.763928188991905,2.4849078361024493
13.653653653653654,13.531967011943415,1.8733719532614002,-0.06747847629239555,-0.6970497709123118,13.561359729367613,2.6497631171670064
13.673673673673674,13.531967011943415,1.8733719532614002,-0.047271252215287315,-0.7657721937165617,13.511103253785828,2.5493903368984174
13.693693693693694,13.531967011943415,1.8733719532614002,-0.008377423877493278,-0.6367585394976147,13.789247867439126,2.5765783247668947
13.713713713713714,13.415388001538986,2.9172545833244587,-0.03867633396408113,-0.725771865827211,13.791948474815289,2.836072007059153
13.733733733733734,13.415388001538986,2.9172545833244587,-0.058646318286183656,-0.7428344456432006,13.679294454553531,2.8595540088423212
13.753753753753754,13.415388001538986,2.9172545833244587,0.05861688665640147,-0.7460004007436966,13.65112959586646,2.88922872213279
13.773773773773774,13.415388001538986,2.9172545833244587,0.038985053956372105,-0.8911980377628946,13.841660917566932,2.644371703916324
13.793793793793794,13.415388001538986,2.9172545833244587,0.05004088823866331,-0.785441133195083,13.686914767835702,2.8389091402787123
13.813813813813814,14.131881377420724,1.8387403136660778,0.05158571404346263,-0.9677927858887585,13.55190320473241,2.9122500496184407
13.833833833833834,14.131881377420724,1.8387403136660778,0.05777004617197549,-1.0839697148401206,13.798357245688505,2.99935286148173
13.853853853853854,14.131881377420724,1.8387403136660778,0.2601987901949531,-0.848362817165671,13.908234305871009,3.1962363022716125
13.873873873873874,14.131881377420724,1.8387403136660778,0.1395993569549762,-0.7050833753262362,13.816862169945662,3.14633590941324
13.893893893893894,14.131881377420724,1.8387403136660778,-0.1443088557254176,-0.8195472179844846,13.982665455303502,3.0161277445823913
13.913913913913914,14.231166951261457,4.029072376238535,-0.06618343691484928,-0.7742126308621304,13.951134588123875,3.090474193053507
13.933933933933934,14.231166951261457,4.029072376238535,-0.052271912656426105,-0.7967607177177253,13.770335699192405,3.320789752866835
13.953953953953954,14.231166951261457,4.029072376238535,0.030220001958586123,-0.8190952291586961,13.999890529359545,3.0878895803043065
13.973973973973974,14.231166951261457,4.029072376238535,0.13794718006980605,-0.6848257494848277,13.971885298795955,3.3194550800852833
13.993993993993994,14.231166951261457,4.029072376238535,-0.1067901583597676,-0.8357893636827883,14.023279342062509,3.2196567743672317
14.014014014014014,14.096124503544855,3.1390231679084075,-0.19885128351890838,-0.8174412829095686,14.114774877140285,3.4210861921741937
14.034034034034034,14.096124503544855,3.1390231679084075,0.00623047518445681,-0.9325392319020874,13.97926384834002,3.2930039967461866
14.054054054054054,14.096124503544855,3.1390231679084075,0.0144409451936139,-0.9022167819262634,14.289756012086,3.426161088206218
14.074074074074074,14.096124503544855,3.1390231679084075,0.10279049409450383,-0.6780885727553959,14.049350672321447,3.2892969787579824
14.094094094094094,14.096124503544855,3.1390231679084075,0.12556878782069208,-0.9381156333975929,13.984882783619362,3.44952992563859
14.114114114114114,14.332852345815704,2.7837036624381777,-0.07099054620597323,-0.9197446130823058,14.370702785758372,3.6207870047158752
14.134134134134134,14.332852345815704,2.7837036624381777,-0.02977704066216212,-0.9809748043926443,13.984520770174818,3.583277099653843
14.154154154154154,14.332852345815704,2.7837036624381777,0.04468522399878474,-0.8353369639742642,14.02604627907464,3.590459999468485
14.174174174174174,14.332852345815704,2.7837036624381777,-0.017646987596046475,-0.8592068359791656,14.330803785178707,3.6677047631209776
14.194194194194194,14.332852345815704,2.7837036624381777,-0.0405061670838383,-0.8075514747564546,14.236005446196128,3.6082460523516704
14.214214214214214,14.207428480160155,3.621768821957493,-0.028373565215569975,-0.9385403278900509,14.326332207829802,3.766103067063063
14.234234234234235,14.207428480160155,3.621768821957493,-0.05902450591190953,-0.9463603444632166,14.271043897752316,3.6500996378981596
14.254254254254255,14.207428480160155,3.621768821957493,0.00936860563722718,-0.9575634002550345,14.20631362764649,3.7920799847821183
14.274274274274275,14.207428480160155,3.621768821957493,0.04403337543287389,-0.9594252216853962,14.237012523090177,3.5984212686671975
14.294294294294295,14.207428480160155,3.621768821957493,0.21286866790124456,-0.8255454701826436,14.23694396186906,3.7396931328656486
14.314314314314315,14.52409086215806,3.510191399721688,0.09779936142941605,-1.0839920795857358,14.333861742553857,3.7658313851628415
14.334334334334335,14.52409086215806,3.510191399721688,-0.013272524486445066,-0.8641815084145656,14.35180547344074,3.8522921279630102
14.354354354354355,14.52409086215806,3.510191399721688,-0.04810234871325966,-1.01325103027974,14.30766122516922,3.9853516743559334
14.374374374374375,14.52409086215806,3.510191399721688,0.039049931645217625,-1.1253197896543619,14.491677504768214,3.8447232134818057
14.394394394394395,14.52409086215806,3.510191399721688,0.16840623758423756,-0.9666493137725235,14.348957773776132,3.9928217787358253
14.414414414414415,15.164013377547407,4.193277374515844,0.03412540326095938,-1.0806404531691551,14.323935393205375,3.760917562978236
14.434434434434435,15.164013377547407,4.193277374515844,-0.0009875688570457604,-0.9497661202403976,14.35942612510581,4.025180226135614
14.454454454454455,15.164013377547407,4.193277374515844,0.023062968206788353,-1.0123090053636092,14.532914032466943,4.194860503260521
14.474474474474475,15.164013377547407,4.193277374515844,-0.023199925670455798,-1.1257457984562744,14.318129718890113,3.9602085447240682
14.494494494494495,15.164013377547407,4.193277374515844,-0.0345553367789312,-1.0172451382052092,14.403876405600982,4.260269157652139
14.514514514514515,14.094510659975937,3.209873651274187,-0.005184515394994306,-1.193588570907459,14.39406577933489,4.147539321577441
14.534534534534535,14.094510659975937,3.209873651274187,0.04052044434225931,-1.1787233512387212,14.533080216372822,4.118325624642846
14.554554554554555,14.094510659975937,3.209873651274187,-0.03784097988724805,-1.1194660596769022,14.4769134355127,4.1184920374245735
14.574574574574575,14.094510659975937,3.209873651274187,-0.09367208719820314,-1.0813061145050187,14.421014073080062,4.14881807121083
14.594594594594595,14.094510659975937,3.209873651274187,-0.12173225540400122,-1.1478048102854481,14.56601289440563,4.361652303972645
14.614614614614615,14.581324648931766,4.402787615444358,-0.1799374135641928,-1.0314559909237644,14.597295820829377,4.228993782376596
14.634634634634635,14.581324648931766,4.402787615444358,-0.0171680220635053,-0.9912123830142489,14.78199830321674,4.2559217179662685
14.654654654654655,14.581324648931766,4.402787615444358,0.09152476817764077,-1.1385304480621696,14.608057838283964,4.325223559228144
14.674674674674675,14.581324648931766,4.402787615444358,-0.0861904734979957,-1.0108265477646379,14.657027021129604,4.426628298793452
14.694694694694695,14.581324648931766,4.402787615444358,-0.07949124879622227,-0.8016080044294307,14.747291151003301,4.289359182345131
14.714714714714715,15.430531148733213,4.048492595352402,-0.05067758507870179,-1.1520035497788124,14.690963945953266,4.310757346556035
14.734734734734735,15.430531148733213,4.048492595352402,-0.26494795822104333,-1.1797185620883734,14.809473578557,4.534424880102118
14.754754754754755,15.430531148733213,4.048492595352402,-0.10076464560564863,-1.1615945029434285,14.755557057777702,4.58127055580619
14.774774774774775,15.430531148733213,4.048492595352402,0.023336925334889458,-1.0321381357199197,14.82133796256545,4.4476341768343515
14.794794794794795,15.430531148733213,4.048492595352402,0.07555797801044453,-0.9098496398152767,14.944884512558138,4.519227632101344
14.814814814814815,15.165523961112235,3.6166709040780782,-0.050697766819515544,-1.2104669717467362,14.798920725328959,4.471714517003449
14.834834834834835,15.165523961112235,3.6166709040780782,-0.016914024478231076,-1.1244421506706728,14.899847582239314,4.587697125455794
14.854854854854855,15.165523961112235,3.6166709040780782,0.23922414365839806,-1.205040517789616,14.933239382678114,4.634636674095956
14.874874874874875,15.165523961112235,3.6166709040780782,-0.07452988648985968,-1.200748154650806,14.836527653019667,4.538290391916235
14.894894894894895,15.165523961112235,3.6166709040780782,0.10158447309944463,-1.0377819251349578,14.739383971827085,4.611676659151752
14.914914914914915,14.871627083814243,5.380774811895325,0.03640204038663709,-0.8566487177303708,14.963285954526903,4.7860313682463005
14.934934934934935,14.871627083814243,5.380774811895325,-0.016967157618796806,-1.2215497865157354,14.944518757446016,4.711865159197389
14.954954954954955,14.871627083814243,5.380774811895325,-0.20436358795299672,-1.265697426000447,14.89172438991002,4.639957358747434
14.974974974974975,14.871627083814243,5.380774811895325,-0.11381936709942163,-1.0726599369250371,14.866246129243933,4.590060787232092
14.994994994994995,14.871627083814243,5.380774811895325,-0.07734735205838951,-1.3249163609325578,15.015477337045409,4.6318885853769975
15.015015015015015,13.986487364329752,4.381516134782755,-0.10426849778192891,-1.1003391861641114,14.995920944770296,4.731529195072302
15.035035035035035,13.986487364329752,4.381516134782755,-0.011336561405249579,-1.1854710990178223,15.063229904135438,4.844693228770409
15.055055055055055,13.986487364329752,4.381516134782755,-0.011263229491550335,-1.2701949634517344,14.913077138971069,4.629258173328556
15.075075075075075,13.986487364329752,4.381516134782755,0.13685969533887052,-1.1140109428619887,15.056123103063223,4.823101487732956
15.095095095095095,13.986487364329752,4.381516134782755,-0.14337942747434038,-0.9892862110351612,15.046579799306956,4.834622151102302
15.115115115115115,14.458754070307746,4.6962095838365405,0.04094300948353734,-1.098780982372319,15.337881553912945,4.66183628038558
15.135135135135135,14.458754070307746,4.6962095838365405,0.03322972674375484,-1.2010128221088696,15.233697075248122,4.696654661761729
15.155155155155155,14.458754070307746,4.6962095838365405,-0.06415423367351593,-1.2362384041542351,15.226819506623398,4.902718865162053
15.175175175175175,14.458754070307746,4.6962095838365405,0.17073136956295523,-1.2227293359716493,15.226078150247508,4.983114723771017
15.195195195195195,14.458754070307746,4.6962095838365405,0.06430857735760963,-1.2877073187767503,15.032094603083472,4.692032435810878
15.215215215215215,15.21640714088287,4.966541610356793,0.052090885513894264,-1.0572621546664434,15.257400528286244,4.999072898959964
15.235235235235235,15.21640714088287,4.966541610356793,-0.03352911727083468,-1.163847828281564,15.121579625921544,4.888878480570643
15.255255255255255,15.21640714088287,4.966541610356793,0.14275856401085515,-1.401799404488538,15.32797217246414,4.8182194962666465
15.275275275275275,15.21640714088287,4.966541610356793,-0.06880409661766505,-1.3037504362060812,15.291064069328414,4.802847264596146
15.295295295295295,15.21640714088287,4.966541610356793,-0.028036581643237843,-1.2316359113387811,15.230820214648691,4.798399504278932
15.315315315315315,15.790578577685071,5.070660970907236,-0.044604371865574206,-1.2807583557943434,15.119772811410746,4.923810981169283
15.335335335335335,15.790578577685071,5.070660970907236,0.0016440432692571075,-1.3050403412399039,15.426343057393533,4.836730105570243
15.355355355355355,15.790578577685071,5.070660970907236,0.02173430292491049,-1.2313858310517378,15.516407434609128,4.937275753869439
15.375375375375375,15.790578577685071,5.070660970907236,0.019165579964299115,-1.2129281703837855,15.29871268469537,4.668692928101423
15.395395395395395,15.790578577685071,5.070660970907236,0.07569841298664645,-1.194975607598361,15.462431931329185,4.882809322170355
15.415415415415415,14.39355019228275,4.872562967772782,0.07892068562347962,-1.3141615415467953,15.331514376267021,4.974074922117756
15.435435435435435,14.39355019228275,4.872562967772782,0.1930669534402542,-1.0113260188867383,15.419221961121362,4.899754731557147
15.455455455455455,14.39355019228275,4.872562967772782,-0.09717428793677782,-1.2690397750431242,15.29050804581343,5.100314505010227
15.475475475475475,14.39355019228275,4.872562967772782,0.030934805137505225,-1.2172234541483202,15.490853288289532,5.04574746515408
15.495495495495495,14.39355019228275,4.872562967772782,0.0031018756222304447,-1.1723514889662137,15.372561149355676,5.025385766079599
15.515515515515515,15.06976641763453,4.398026007168444,0.12317345266140223,-1.2529808205161714,15.564744107761694,4.94047976721505
15.535535535535535,15.06976641763453,4.398026007168444,0.07821309513033047,-1.1237411977065506,15.46449407106835,4.930603449190912
15.555555555555555,15.06976641763453,4.398026007168444,-0.07616291593342837,-1.348138104957016,15.464398070107016,4.941901098590961
15.575575575575575,15.06976641763453,4.398026007168444,-0.1129882042914041,-1.2763962543259946,15.529904924246223,4.974856957354974
15.595595595595595,15.06976641763453,4.398026007168444,-0.07847444915437238,-1.2972397394624915,15.572767297511028,5.034291546338566
15.615615615615615,16.915655843380414,5.1090232511683915,-0.049036864196775366,-1.1019011897305075,15.740968555168541,5.041967226056603
15.635635635635635,16.915655843380414,5.1090232511683915,-0.0940109702598253,-1.251412619243277,15.853895598856438,5.1098130384427
15.655655655655655,16.915655843380414,5.1090232511683915,-0.1516459023658451,-1.215595297692303,15.80890063829503,5.006978105075904
15.675675675675675,16.915655843380414,5.1090232511683915,0.003043290574257096,-1.0330019220231006,15.783494899988849,4.962741616129456
15.695695695695695,16.915655843380414,5.1090232511683915,0.036203010263288316,-1.0727994567290255,15.584412124144285,4.978020882673519
15.715715715715715,15.737833795615753,4.7331823160051885,0.11049610382585251,-1.3508416548686573,15.689683805032958,5.147245379565941
15.735735735735735,15.737833795615753,4.7331823160051885,-0.1884976026622615,-1.2592444749593297,15.917548435424486,5.049377240537085
15.755755755755755,15.737833795615753,4.7331823160051885,-0.12614138654342089,-1.2741362704588413,15.937068535069523,5.149422647378749
15.775775775775776,15.737833795615753,4.7331823160051885,-0.08476685103124379,-1.4476363002515236,15.70749588826673,4.909827620790964
15.795795795795796,15.737833795615753,4.7331823160051885,-0.17135863251582062,-1.3105758026114447,15.763955200992077,4.8710392708769925
15.815815815815816,15.495778768738102,4.831487790266735,0.036705224269248125,-1.4170565528513919,15.74547748029233,5.109417392353577
15.835835835835836,15.495778768738102,4.831487790266735,0.07714294444813552,-1.4052092487296928,15.918754193401458,4.84017417142357
15.855855855855856,15.495778768738102,4.831487790266735,0.06560855183057465,-1.1141541770823038,16.113640717899756,5.089808757555588
15.875875875875876,15.495778768738102,4.831487790266735,-0.05415759581863716,-1.2956222231578831,15.736011202122002,5.142757966686814
15.895895895895896,15.495778768738102,4.831487790266735,-0.2103421242194853,-1.2786114226329781,15.957115971460416,4.989593475619807
15.915915915915916,15.911126281157031,4.2085752410858515,0.19968359979621222,-1.2541206590539835,15.800826523909627,4.965682464041941
15.935935935935936,15.911126281157031,4.2085752410858515,-0.048668375783314906,-1.1782141730025102,15.991455261806927,4.7127996347068315
15.955955955955956,15.911126281157031,4.2085752410858515,0.14226802820092113,-1.26683434625527,15.987139410016114,4.896334871044408
15.975975975975976,15.911126281157031,4.2085752410858515,0.12503984108205662,-1.248345172893749,16.09156427477738,5.072144126931723
15.995995995995996,15.911126281157031,4.2085752410858515,0.03997618500151306,-1.2470690673730076,16.022411626814815,4.982933195332176
16.016016016016017,17.079351288099822,4.915435368260077,-0.08290994797104552,-1.2871583070224677,16.066593058445456,4.824258251047208
16.036036036036037,17.079351288099822,4.915435368260077,-0.16570896540196267,-1.2345975049972078,15.94421312525452,4.892031182269299
16.056056056056057,17.079351288099822,4.915435368260077,-0.07765483692123717,-1.2564309474170199,16.038537300042222,4.944164275132842
16.076076076076077,17.079351288099822,4.915435368260077,-0.045032212022897374,-1.2217606360467421,16.0117720832634,4.864047618614972
16.096096096096097,17.079351288099822,4.915435368260077,0.008512565698691469,-1.2034056078703024,16.207807027019136,4.925860335718515
16.116116116116117,16.689009739385188,4.769964328178303,-0.08831891970482258,-1.356352672950147,16.162128579894212,4.702607053157685
16.136136136136138,16.689009739385188,4.769964328178303,-0.04082541873748157,-1.2152368640613744,16.21746741949496,4.945898582771779
16.156156156156158,16.689009739385188,4.769964328178303,0.13799189084715757,-1.2764166648047275,16.094090201261686,4.850549156223331
16.176176176176178,16.689009739385188,4.769964328178303,-0.11888500771721824,-1.3734592250465512,16.175750868405792,4.9453656258765815
16.196196196196198,16.689009739385188,4.769964328178303,-0.025423388219415345,-1.084178617207994,15.977391005920747,4.82715303832357
16.216216216216218,16.32944106137362,3.7176001123557674,0.02262677514854121,-1.2015406624129024,16.09217322990231,4.7719504155844366
16.236236236236238,16.32944106137362,3.7176001123557674,0.21547128917752112,-1.0392600031590493,16.15307431474145,4.78566954930226
16.256256256256258,16.32944106137362,3.7176001123557674,0.221627648232176,-1.2651872778465725,16.27294867711284,4.853932830827497
16.276276276276278,16.32944106137362,3.7176001123557674,-0.05514008359792292,-0.9931173879231676,16.15953238431459,4.714144231532217
16.296296296296298,16.32944106137362,3.7176001123557674,0.06390802606212527,-1.3838968958398172,16.169111054781773,4.775730449351416
16.316316316316318,17.16361929497017,5.015455233962817,-0.1488678239604465,-1.199631550810147,16.11228476727917,4.951362575026083
16.336336336336338,17.16361929497017,5.015455233962817,-0.06401026999547908,-1.3811436188436854,16.303173714769617,4.792747681096959
16.356356356356358,17.16361929497017,5.015455233962817,0.048995179209950175,-1.251934857906708,16.445311001869523,5.078916206303895
16.376376376376378,17.16361929497017,5.015455233962817,0.023415150047345738,-1.0529097143222708,16.560364056527572,4.770352066411775
16.396396396396398,17.16361929497017,5.015455233962817,0.00588003939605804,-1.101103358003809,16.352453678990358,4.925555066813029
16.416416416416418,16.997116341072804,4.964074884690907,-0.11835890154871971,-1.0966028936825096,16.44250849134138,4.61806177971166
16.436436436436438,16.997116341072804,4.964074884690907,0.08243109506222418,-1.2521928444174322,16.329146960307497,4.652004915322608
16.456456456456458,16.997116341072804,4.964074884690907,-0.1010920193179747,-1.256936703154801,16.42838988804689,4.67937851585125
16.476476476476478,16.997116341072804,4.964074884690907,0.04924110335835064,-1.1927170867364156,16.473697935377846,4.683818885586306
16.496496496496498,16.997116341072804,4.964074884690907,0.02217929483384396,-1.0868171071703716,16.45756595138443,4.650658851923664
16.516516516516518,16.975760323857774,3.7078451935023917,-0.15391408052632088,-1.1807023819411921,16.500182597202446,4.333447303268982
16.536536536536538,16.975760323857774,3.7078451935023917,-0.05024962427646995,-1.1537456325747715,16.604163707163814,4.425074375574521
16.556556556556558,16.975760323857774,3.7078451935023917,0.07153893451063889,-1.2036220937215656,16.56023754194447,4.443484644001481
16.576576576576578,16.975760323857774,3.7078451935023917,0.08513231531394236,-0.8936176285905055,16.524403380456373,4.5399085590312955
16.596596596596598,16.975760323857774,3.7078451935023917,-0.016327299046882845,-0.9360502420800416,16.57673965049013,4.493015813434804
16.616616616616618,16.49421478025734,5.3648127876662945,0.02413385022405309,-1.049123823839927,16.555929611209272,4.5248913119086565
16.636636636636638,16.49421478025734,5.3648127876662945,0.029112193220113988,-1.1318502168935496,16.580040831374493,4.386905934445673
16.656656656656658,16.49421478025734,5.3648127876662945,-0.07646950420022618,-1.1066286265711966,16.625171666316078,4.5758724379548035
16.676676676676678,16.49421478025734,5.3648127876662945,0.19793395020094118,-1.1403608721401663,16.750908326269002,4.297713033607259
16.696696696696698,16.49421478025734,5.3648127876662945,0.02385147182895033,-1.129208829868016,16.770229622613492,4.364555167428639
16.716716716716718,17.543942962861152,5.124612397382235,0.006689335118721273,-1.1457764827731174,16.87656584731044,4.2873416175435795
16.736736736736738,17.543942962861152,5.124612397382235,-0.020652167371211266,-0.9862260090445141,16.912481126726703,4.164192556394159
16.756756756756758,17.543942962861152,5.124612397382235,-0.04029747060457343,-1.1299317144551424,16.700801556814636,4.324959916713716
16.776776776776778,17.543942962861152,5.124612397382235,0.14338071771096458,-0.881572079032292,16.73737783625478,4.340805247498564
16.796796796796798,17.543942962861152,5.124612397382235,-0.16158353535442505,-1.1680573857233965,16.894803786415014,4.342495849379605
16.816816816816818,15.956235644832446,3.69167338729781,0.012674911236011409,-0.9961750929575479,16.824943985311176,4.332949351485139
16.836836836836838,15.956235644832446,3.69167338729781,0.20410601016586086,-1.0325365707489866,16.954288110106173,4.14180906190383
16.856856856856858,15.956235644832446,3.69167338729781,-0.056957218532599885,-0.969613857176711,16.89889270759597,4.190783992717415
16.876876876876878,15.956235644832446,3.69167338729781,-0.04167508723388838,-0.919737486722112,16.852678405091293,4.071198244481422
16.896896896896898,15.956235644832446,3.69167338729781,-0.16499291213604297,-0.988736986995481,16.882645754742,3.884182507375319
16.916916916916918,16.110310419225808,3.6599680332383784,0.06537818336763244,-0.9768166456082499,16.874783109142538,4.121914848139678
16.936936936936938,16.110310419225808,3.6599680332383784,0.14450619583760457,-0.9384937813735967,17.027002561009915,4.177489334075213
16.956956956956958,16.110310419225808,3.6599680332383784,-0.07983554994844551,-1.0365060793052625,16.975836065939667,4.265374006345126
16.976976976976978,16.110310419225808,3.6599680332383784,-0.1565215129517873,-0.8694871096366483,16.936543613118133,3.959839214187488
16.996996996996998,16.110310419225808,3.6599680332383784,0.0542592909662315,-0.9653130294127463,16.85255984007546,3.8454195265759665
17.017017017017018,16.644382643695444,3.623309316418953,0.08529568355911665,-0.9433554749940916,17.22493782819672,4.053175321854713
17.037037037037038,16.644382643695444,3.623309316418953,0.07194428583350124,-1.006173634231419,17.05251703032235,4.0290630709710396
17.057057057057058,16.644382643695444,3.623309316418953,-0.16742655949066043,-0.9632755301674454,17.20507602986337,3.9623478340224887
17.077077077077078,16.644382643695444,3.623309316418953,0.06971137960359011,-0.9327300137619486,17.140111880950116,3.9975227115353236
17.097097097097098,16.644382643695444,3.623309316418953,-0.026255907996260947,-1.0026439712774577,17.161188466723303,3.944139597737318
17.117117117117118,17.946042088946093,3.6585329370936464,0.1848136567030343,-0.9117819822628267,17.04478185441822,3.765141476875968
17.137137137137138,17.946042088946093,3.6585329370936464,-0.0412496922022991,-1.0346411327148333,17.225460410130225,3.9162459979999293
17.157157157157158,17.946042088946093,3.6585329370936464,0.01086339278929638,-1.1556244953561805,17.229905650973656,3.9633079064342285
17.177177177177178,17.946042088946093,3.6585329370936464,0.09283022026966253,-1.0031385690433563,17.37714044498852,3.58602196744996
17.197197197197198,17.946042088946093,3.6585329370936464,-0.17010779678237628,-0.8173838403785227,17.20988149710923,3.76277128708404
17.217217217217218,17.29563442081904,4.481553997800388,0.24229573356370923,-0.8957970682690425,17.142437563102543,3.7838551426229334
17.237237237237238,17.29563442081904,4.481553997800388,0.002970295426371488,-0.9749908302369972,17.16856970831841,3.6359904686525333
17.25725725725726,17.29563442081904,4.481553997800388,0.11125691492119433,-0.8184751015904631,17.3632898900844,3.594187126849672
17.27727727727728,17.29563442081904,4.481553997800388,-0.0739259041733759,-0.9754232699285623,17.281836509058646,3.4491877768319883
17.2972972972973,17.29563442081904,4.481553997800388,0.12450112462103935,-0.7425843696553249,17.194418048758514,3.514419374867971
17.31731731731732,17.272961392949238,3.807112541587204,-0.09170123040244739,-0.9311964569651705,17.357819981805726,3.701892205899229
17.33733733733734,17.272961392949238,3.807112541587204,-0.011858917683072304,-0.7948035867524246,17.185866089686996,3.5216316636726335
17.35735735735736,17.272961392949238,3.807112541587204,-0.08225283083095064,-0.96091380644534,17.488898422737094,3.4413921152455815
17.37737737737738,17.272961392949238,3.807112541587204,-0.031380449707200025,-0.7900021647690367,17.358857530410216,3.375969636061084
17.3973973973974,17.272961392949238,3.807112541587204,0.07848761275594393,-0.7934499270627419,17.19248899872413,3.0510002113731804
17.41741741741742,17.532717733051907,3.7950625342960613,0.048945207925464335,-0.9064658879518649,17.437637444879595,3.307673742156856
17.43743743743744,17.532717733051907,3.7950625342960613,-0.10853763033686231,-0.8122938107821992,17.470736057842952,3.1838182719937844
17.45745745745746,17.532717733051907,3.7950625342960613,0.26174580982374296,-0.8855027428071259,17.388696421370476,3.11637721491772
17.47747747747748,17.532717733051907,3.7950625342960613,-0.03474619593300003,-0.6361099294118637,17.58124436332014,3.129369688266503
17.4974974974975,17.532717733051907,3.7950625342960613,-0.0009558259590027565,-0.8203882051501853,17.35878744798673,3.0222335157216422
17.51751751751752,16.92307265013917,3.5151301221645017,0.05544369548924797,-0.4908365060207907,17.543492649382827,3.000573762851509
17.53753753753754,16.92307265013917,3.5151301221645017,-0.11563817626139863,-0.7952508117044312,17.536127205048356,3.1695451201149445
17.55755755755756,16.92307265013917,3.5151301221645017,-0.06879115084067665,-0.7436074785041076,17.666213763464185,2.8685461536841723
17.57757757757758,16.92307265013917,3.5151301221645017,-0.06707441999108914,-0.6989576651900589,17.49002860117768,2.768073922691796
17.5975975975976,16.92307265013917,3.5151301221645017,-0.06196740438683545,-0.779109594280719,17.448031792308665,3.0067852993894855
17.61761761761762,17.431769713907013,2.651197071279257,-0.12091814361535638,-0.7634900207399176,17.509242898432362,2.8841659181972346
17.63763763763764,17.431769713907013,2.651197071279257,-0.031435306496811734,-0.7587264065355495,17.78028159532382,2.8511168618207687
17.65765765765766,17.431769713907013,2.651197071279257,-0.027152272783023852,-0.6158534528077807,17.688481911909626,2.7461704517185264
17.67767767767768,17.431769713907013,2.651197071279257,0.049856523603000844,-0.810401789849836,17.705971608225255,2.7837078110737727
17.6976976976977,17.431769713907013,2.651197071279257,-0.027690270082496415,-0.791213499108874,17.74741942178248,2.7951257953762565
17.71771771771772,17.996138926861963,2.766865077605267,0.06658144893495475,-0.684126661440073,17.58122153191819,2.6755031782609953
17.73773773773774,17.996138926861963,2.766865077605267,-0.13942841718311558,-0.5528806179862551,17.747913379355932,2.6290442404550554
17.75775775775776,17.996138926861963,2.766865077605267,-0.08753584041256984,-0.6655679418528055,17.692622747329317,2.7461317714840616
17.77777777777778,17.996138926861963,2.766865077605267,0.1935769394136495,-0.7210260027179575,17.78241621130056,2.6619149561299835
17.7977977977978,17.996138926861963,2.766865077605267,-0.12331265293141998,-0.792183861565051,17.839412599301006,2.5621627289463906
17.81781781781782,18.11754758149786,2.4027625507477364,0.01060850573246661,-0.40836356053497325,17.869280054900543,2.2907019128594683
17.83783783783784,18.11754758149786,2.4027625507477364,0.10294001741381693,-0.5061304011374353,17.972432237493443,2.473654492068299
